"","condition","director","matcher","dyad","trial_no","round_no","target","clue","guess","success","RT","symmetry","FAS_d","BAS_d","FAS_m","BAS_m","clue_rank","guess_rank","oc_c_ratio","clue_zipf","max_BAS","difficulty"
"1",0,2,1,"1",1,1,"environment","nature","tree",0,18.96612501,"1",0.0547945205479452,0.00671140939597315,0.0103092783505155,0.0469798657718121,72,5,17.7754385964912,4.65431661689563,0.119298245614035,"2"
"2",0,1,2,"1",2,1,"career","job","work",0,9.30253005,"0",0.229452054794521,0.0446735395189003,0.0588235294117647,0.209621993127148,5,1,2.614261650758,5.61537498824247,0.116788321167883,"2"
"3",0,2,1,"1",3,1,"payment","bill","note",0,14.03217506,"0",0.0563380281690141,0.0341296928327645,0.00342465753424658,0.0102389078498294,7,26,1.50513698630137,5.07301486308172,0.0513698630136986,"1"
"4",0,1,2,"1",4,1,"computer","laptop","computer",1,25.59847808,"1",0.0452961672473868,0.249146757679181,0.0452961672473868,0.249146757679181,3,1,1.04058853373922,3.54225414445335,0.259259259259259,"4"
"5",0,2,1,"1",5,1,"paper","sheet","paper",1,17.36842108,"0",0.00675675675675676,0.212328767123288,0.00675675675675676,0.212328767123288,5,1,1.4001743679163,4.06488883550872,0.297297297297297,"4"
"6",0,1,2,"1",6,1,"death","rip","tear",0,35.00497985,"0",NA,0.00709219858156028,0.127147766323024,0.265957446808511,440,1,40.4265734265734,4.30424951690689,0.286713286713287,"4"
"7",0,2,1,"1",7,1,"brand","logo","brand",1,18.41927886,"0",0.0205479452054795,0.131868131868132,0.0205479452054795,0.131868131868132,1,1,1,3.2603170906984,0.131868131868132,"2"
"8",0,1,2,"1",8,1,"director","tarantino","italy",0,40.0445559,"0",NA,NA,NA,NA,NA,NA,NA,NA,0.0620689655172414,"1"
"9",0,2,1,"1",9,1,"bank","money","coins",0,23.83892894,"1",0.228956228956229,0.0170068027210884,0.23728813559322,0.0408163265306122,66,2,15.0266666666667,5.80611619000484,0.255555555555556,"4"
"10",0,1,2,"1",10,1,"decision","choice ","option",0,22.66722202,"1",NA,NA,NA,NA,NA,NA,NA,NA,0.0830449826989619,"1"
"11",0,2,1,"1",11,1,"chance","opportunity","chance",1,20.83376503,"1",0.0833333333333333,0.158450704225352,0.0833333333333333,0.158450704225352,1,1,1,4.6123958223397,0.158450704225352,"2"
"12",0,1,2,"1",12,1,"software","program","faculty",0,62.04756188,"1",0.0620689655172414,0.00701754385964912,NA,NA,36,NA,18.1810344827586,4.62929340343512,0.127586206896552,"2"
"13",0,2,1,"1",13,1,"help","aid","help",1,11.20921111,"1",0.125,0.256055363321799,0.125,0.256055363321799,3,1,1.20712530712531,4.14309249086353,0.309090909090909,"4"
"14",0,1,2,"1",14,1,"couple","pair","twins",0,12.58913016,"1",0.115646258503401,0.129692832764505,0.0278745644599303,0.0136518771331058,1,14,1,4.5708162590099,0.129692832764505,"2"
"15",0,2,1,"1",15,1,"link","connector","bridge",0,34.56416798,"1",NA,NA,NA,NA,NA,NA,NA,2.24607665158378,0.152777777777778,"2"
"16",0,1,2,"1",16,1,"table","desk","office",0,35.77572298,"1",0.0168918918918919,0.0684931506849315,0.0721649484536082,0.0308219178082192,9,9,2.54355400696864,4.64208216047862,0.174216027874564,"3"
"17",0,2,1,"1",17,1,"skin","exterior","outside",0,17.36739683,"0",NA,0.003690036900369,0.0034965034965035,0.265682656826568,391,1,63.6020408163265,3.37819397281921,0.23469387755102,"4"
"18",0,1,2,"1",18,1,"treatment","medicine","pills",0,12.65418696,"0",0.0673758865248227,0.00348432055749129,0.127586206896552,0.0348432055749129,79,7,8.34909090909091,4.53362957343966,0.0290909090909091,"1"
"19",0,2,1,"1",19,1,"science","labs","science",1,38.98567009,"0",NA,NA,NA,NA,NA,NA,NA,3.61198042825551,0.176470588235294,"3"
"20",0,1,2,"1",20,1,"film","movie","film",1,8.38450718,"1",0.259259259259259,0.155709342560554,0.259259259259259,0.155709342560554,2,1,1.0140350877193,5.08924019182084,0.157894736842105,"2"
"21",0,2,1,"1",21,2,"door","threshold","door",1,34.48623204,"1",0.00675675675675676,0.106463878326996,0.00675675675675676,0.106463878326996,21,1,2.69909688013136,NA,0.28735632183908,"4"
"22",0,1,2,"1",22,2,"president","trump","donald",0,14.55328012,"1",NA,NA,0.268199233716475,0.102661596958175,NA,2,NA,NA,0.263513513513513,"4"
"23",0,2,1,"1",23,2,"situation","scenario","occurrence",0,47.04328895,"0",0.00380228136882129,0.143410852713178,0.00409836065573771,0.00387596899224806,2,88,1.01176470588235,3.79698412046437,0.145098039215686,"2"
"24",0,1,2,"1",24,2,"message","text","message",1,9.71850491,"1",0.114982578397213,0.0915492957746479,0.114982578397213,0.0915492957746479,2,2,1.1798445456982,NA,0.10801393728223,"2"
"25",0,2,1,"1",25,2,"vehicle","car","motor",0,22.83550191,"1",0.292517006802721,0.0513698630136986,0.184931506849315,0.00684931506849315,3,38,1.08524970963995,5.68342196565441,0.0557491289198606,"1"
"26",0,1,2,"1",26,2,"relationship"," love","desire",0,13.47657704,"0",NA,NA,NA,NA,NA,NA,NA,NA,0.0839160839160839,"1"
"27",0,2,1,"1",27,2,"sense","common","same",0,24.57190013,"1",0.0853242320819113,0.0443686006825939,0.00355871886120996,0.0068259385665529,6,42,3.71221719457014,4.64900639986749,0.164705882352941,"3"
"28",0,1,2,"1",28,2,"future","plan","outline",0,26.86341882,"1",0.0103806228373702,0.0238907849829352,0.014336917562724,0.0102389078498294,50,24,6.16010781671159,5.16299827494741,0.147169811320755,"2"
"29",0,2,1,"1",29,2,"weight","pounds","weight",1,17.66974688,"0",0.0443686006825939,0.271428571428571,0.0443686006825939,0.271428571428571,1,1,1,4.49486702915917,0.271428571428571,"4"
"30",0,1,2,"1",30,2,"purpose","meaning","reason",0,15.49057508,"0",0.0854092526690391,0.0144404332129964,0.00701754385964912,0.0144404332129964,17,12,6.24812030075188,4.5717291221561,0.0902255639097744,"1"
"31",0,2,1,"1",31,2,"dog","canine","dog",1,6.39067316,"0",0.0413793103448276,0.301075268817204,0.0413793103448276,0.301075268817204,7,1,1.08281004709576,3.23135339476308,0.326007326007326,"4"
"32",0,1,2,"1",32,2,"percent","probability","chance",0,52.47133803,"0",0.00355871886120996,0.00684931506849315,0.0138888888888889,0.147260273972603,16,1,5.67491166077739,3.35253198249807,0.03886925795053,"1"
"33",0,2,1,"1",33,2,"summer","july","summer",1,11.49631691,"0",0.00335570469798658,0.183453237410072,0.00335570469798658,0.183453237410072,2,1,1.00461754667737,4.0821193061777,0.184300341296928,"3"
"34",0,1,2,"1",34,2,"comment","opinion","choice",0,80.09590292,"0",0.102836879432624,NA,NA,NA,NA,NA,NA,4.62285631318629,0.121673003802281,"2"
"35",0,2,1,"1",35,2,"force","strength","strong",0,19.73301101,"0",0.0314685314685315,0.0205479452054795,0.013745704467354,0.0993150684931507,37,2,9.44278606965174,4.56691504060132,0.194029850746269,"3"
"36",0,1,2,"1",36,2,"review","examine","test",0,13.48865604,"0",0.00364963503649635,0.0106382978723404,NA,0.0957446808510638,22,2,8.15702479338843,3.99512552026312,0.0867768595041322,"1"
"37",0,2,1,"1",37,2,"club","group","together",0,52.88014984,"1",0.0572390572390572,0.00699300699300699,0.0280701754385965,0.027972027972028,76,8,26.3159722222222,4.86736836046432,0.184027777777778,"3"
"38",0,1,2,"1",38,2,"picture","photo","picture",1,7.11650801,"1",0.114478114478114,0.206293706293706,0.114478114478114,0.206293706293706,4,1,1.19526352449501,4.35853269256746,0.246575342465753,"4"
"39",0,2,1,"1",39,2,"girl","woman","lady",0,14.21600199,"1",0.104377104377104,0.0847457627118644,0.188356164383562,0.0576271186440678,15,4,3.10296296296296,NA,0.262962962962963,"4"
"40",0,1,2,"1",40,2,"difference","differ","mix",0,80.59267497,"0",0.0072992700729927,0.00754716981132075,NA,NA,32,NA,17.1145833333333,3.38874415515252,0.129166666666667,"2"
"41",0,2,1,"1",41,3,"box","cardboard","box",1,16.08429194,"1",0.0921501706484642,0.267441860465116,0.0921501706484642,0.267441860465116,1,1,1,3.43484894239855,0.267441860465116,"4"
"42",0,1,2,"1",42,3,"record","vinyl","record",1,18.72672606,"1",0.0348432055749129,0.199312714776632,0.0348432055749129,0.199312714776632,1,1,1,NA,0.199312714776632,"3"
"43",0,2,1,"1",43,3,"news","paper","news",1,17.78327322,"0",0.155932203389831,0.0540540540540541,0.155932203389831,0.0540540540540541,18,2,2.95748299319728,5.01380954373041,0.159863945578231,"2"
"44",0,1,2,"1",44,3,"mind","thought","idea",0,8.91831803,"0",0.0582191780821918,0.0909090909090909,0.195035460992908,0.134545454545455,5,1,2.00760456273764,NA,0.182509505703422,"3"
"45",0,2,1,"1",45,3,"network","social","extrovert",0,45.57578301,"1",0.0839160839160839,0.0677966101694915,0.0240549828178694,0.00338983050847458,1,76,1,4.52330373257514,0.0677966101694915,"1"
"46",0,1,2,"1",46,3,"store","shop","store",1,5.74738598,"0",0.123239436619718,0.169611307420495,0.123239436619718,0.169611307420495,5,1,1.24802311435523,4.72831483715396,0.211678832116788,"3"
"47",0,2,1,"1",47,3,"method","procedure","treatment",0,22.36168003,"1",0.0261194029850746,0.0326086956521739,0.00354609929078014,NA,6,NA,2.55555555555556,4.20776135384158,0.0833333333333333,"1"
"48",0,1,2,"1",48,3,"war","peace","harmony",0,23.03928804,"0",0.0942760942760943,0.0982456140350877,0.112244897959184,0.0210526315789474,24,8,3.07553956834532,4.84218481444608,0.302158273381295,"4"
"49",0,2,1,"1",49,3,"resource","supply","stock",0,34.91612387,"0",0.0142348754448399,0.00709219858156028,0.00694444444444444,0.0141843971631206,6,10,1.63320463320463,4.27092704278279,0.0115830115830116,"1"
"50",0,1,2,"1",50,3,"location","place","building",0,30.41901493,"1",0.212014134275618,0.0848056537102474,NA,0.00706713780918728,2,24,1.45259661835749,5.7794956192631,0.123188405797101,"2"
"51",0,2,1,"1",51,3,"degree","student","study",0,13.10706902,"0",NA,0.00340136054421769,0.00341296928327645,0.0578231292517007,159,4,34.4689655172414,4.63346647792251,0.117241379310345,"2"
"52",0,1,2,"1",52,3,"set","matching","set",1,50.20482802,"0",0.00346020761245675,NA,0.00346020761245675,NA,NA,NA,NA,3.6554461220366,0.15916955017301,"2"
"53",0,2,1,"1",53,3,"foot","toes","feet",0,12.16872382,"0",0.0540540540540541,0.0372881355932203,0.150170648464164,0.186440677966102,23,1,6.15965306778028,NA,0.229681978798587,"3"
"54",0,1,2,"1",54,3,"example","practice","study",0,74.15901804,"0",0.00398406374501992,NA,0.0068259385665529,0.020979020979021,NA,11,NA,4.65937641566504,0.08,"1"
"55",0,2,1,"1",55,3,"unit","storage","container",0,35.26256514,"0",0.0034965034965035,0.0379310344827586,0.017921146953405,0.0344827586206897,1,5,1,3.94793234415729,0.0379310344827586,"1"
"56",0,1,2,"1",56,3,"view","vista","villa",0,17.25704408,"1",0.0530035335689046,0.179591836734694,NA,0.00408163265306122,1,112,1,NA,0.179591836734694,"3"
"57",0,2,1,"1",57,3,"phone","telephone","cell",0,30.11284804,"1",0.0274914089347079,0.0238095238095238,NA,0.054421768707483,54,3,10.4285714285714,4.50984418512882,0.248299319727891,"4"
"58",0,1,2,"1",58,3,"oil","olive","oil",1,9.9337759,"1",0.0510204081632653,0.214285714285714,0.0510204081632653,0.214285714285714,1,1,1,3.86702198707212,0.214285714285714,"3"
"59",0,2,1,"1",59,3,"patient","doctor","nurse",0,11.01394701,"1",0.159574468085106,0.037542662116041,0.159863945578231,0.0784982935153584,3,2,1.52207792207792,5.42094372836519,0.0571428571428571,"1"
"60",0,1,2,"1",60,3,"road","highway","road",1,9.59968615,"1",0.0536912751677852,0.175862068965517,0.0536912751677852,0.175862068965517,3,1,1.24323564551269,4.25182898047288,0.218637992831541,"3"
"61",0,2,1,"1",61,4,"rule","law","police",0,23.65553689,"0",0.143344709897611,0.0821917808219178,0.0538720538720539,0.0821917808219178,7,1,2.20818505338078,5.06510849048191,0.181494661921708,"3"
"62",0,1,2,"1",62,4,"code","programming","installing",0,13.48917484,"1",0.0205479452054795,0.024822695035461,NA,NA,18,NA,12.2125984251969,3.49866001817631,0.303149606299213,"4"
"63",0,2,1,"1",63,4,"choice","select","choose",0,5.35955811,"1",0.0207612456747405,0.0485074626865672,0.149305555555556,0.242537313432836,18,1,5.802849002849,3.54951271701364,0.281481481481481,"4"
"64",0,1,2,"1",64,4,"guy","gal","woman",0,6.91426396,"0",0.0640569395017794,0.0553505535055351,NA,0.0848708487084871,3,2,2.98990610328639,4.15277076284455,0.165492957746479,"3"
"65",0,2,1,"1",65,4,"article","journal","diary",0,9.94671106,"1",0.0310344827586207,0.0134228187919463,0.126279863481229,0.12751677852349,20,1,4.29807692307692,3.94888999500156,0.0576923076923077,"1"
"66",0,1,2,"1",66,4,"light","bulb","light",1,5.14792895,"1",0.09,0.298181818181818,0.09,0.298181818181818,1,1,1,3.59503019956495,0.298181818181818,"4"
"67",0,2,1,"1",67,4,"employee","worker","employee",1,13.06535888,"1",0.149825783972125,0.0577617328519856,0.149825783972125,0.0577617328519856,4,2,1.28717472118959,NA,0.0743494423791822,"1"
"68",0,1,2,"1",68,4,"heart","cardiac","arrest",0,34.7207911,"0",0.00335570469798658,0.298932384341637,0.0235690235690236,0.231316725978648,2,2,1.02622841965471,3.59933018005767,0.306772908366534,"4"
"69",0,2,1,"1",69,4,"look","see","view",0,6.19252992,"0",0.221476510067114,0.0983050847457627,0.176678445229682,0.0610169491525424,13,3,2.3182031433263,6.40709175020568,0.227891156462585,"3"
"70",0,1,2,"1",70,4,"role","play","fun",0,19.55963016,"1",0.160278745644599,NA,0.0410958904109589,0.0915254237288136,NA,1,NA,5.54908060705183,0.0442176870748299,"1"
"71",0,2,1,"1",71,4,"tax",NA,"feline",0,27.49555492,"1",NA,NA,NA,NA,NA,NA,NA,NA,0.16,"2"
"72",0,1,2,"1",72,4,"department","store","shop",0,21.40752888,"0",0.211678832116788,0.00704225352112676,0.169611307420495,0.123239436619718,14,1,3.14391143911439,4.91290651328809,0.022140221402214,"1"
"73",0,2,1,"1",73,4,"style","fashion","clothes",0,10.08225894,"1",0.176258992805755,0.0830449826989619,0.0378006872852234,0.124567474048443,2,1,1.07835820895522,4.273199651223,0.0895522388059701,"1"
"74",0,1,2,"1",74,4,"air","breathe","lungs",0,12.52883291,"1",0.130434782608696,0.184397163120567,0.130281690140845,0.0886524822695035,2,2,1.19270420301348,4.68540934541405,0.219931271477663,"3"
"75",0,2,1,"1",75,4,"staff","workers","employees",0,15.84209204,"0",0.0308219178082192,0.0217391304347826,NA,0.0688405797101449,5,1,4.27142857142857,NA,0.0928571428571429,"1"
"76",0,1,2,"1",76,4,"client","sell","buy",0,86.59450507,"1",NA,NA,0.0968858131487889,0.214035087719298,NA,1,NA,4.96448606498446,0.0714285714285714,"1"
"77",0,2,1,"1",77,4,"parent","father","dad",0,18.32175899,"0",0.139455782312925,0.0238907849829352,0.234042553191489,0.167235494880546,19,2,4.66699850671976,5.74331354726932,0.111498257839721,"2"
"78",0,1,2,"1",78,4,"period","tampon","period",1,12.21802998,"1",0.00684931506849315,0.144827586206897,0.00684931506849315,0.144827586206897,2,2,1.27865961199295,2.83590218649474,0.185185185185185,"3"
"79",0,2,1,"1",79,4,"park","yard","garden",0,26.9607079,"0",NA,NA,0.00668896321070234,0.0551724137931034,NA,2,NA,NA,0.232727272727273,"3"
"80",0,1,2,"1",80,4,"ability","talent","show",0,13.9522779,"0",0.0760456273764259,0.0528169014084507,0.00342465753424658,0.0915492957746479,6,2,3.08383838383838,4.41666429155832,0.162878787878788,"2"
"81",0,2,1,"1",81,5,"show","presentation","oral",0,20.60770512,"1",0.00342465753424658,0.039568345323741,0.00687285223367698,0.00719424460431655,28,31,6.45454545454546,3.85886050830352,0.255395683453237,"4"
"82",0,1,2,"1",82,5,"condition","syndrome","stockholm",0,13.91826582,"2",NA,0.010752688172043,NA,0.025089605734767,14,8,2.6013986013986,3.79833917454933,0.027972027972028,"1"
"83",0,2,1,"1",83,5,"access","entry","doorway",0,19.03888607,"1",0.0367647058823529,0.0313588850174216,0.0421052631578947,0.0174216027874564,2,9,1.23949744797801,4.08492574232104,0.03886925795053,"1"
"84",0,1,2,"1",84,5,"age","old","aged",0,13.87185097,"1",0.128919860627178,0.0644067796610169,0.253424657534247,0.0542372881355932,10,4,2.45740249905339,5.78399364420117,0.158273381294964,"2"
"85",0,2,1,"1",85,5,"test","exam","test",1,5.17384505,"1",0.132867132867133,0.256756756756757,0.132867132867133,0.256756756756757,1,1,1,4.12752471363689,0.256756756756757,"4"
"86",0,1,2,"1",86,5,"board","game","sport",0,8.28164792,"0",0.0655172413793104,0.0506756756756757,0.0510204081632653,0.0168918918918919,17,10,3.69160997732426,5.36836536139827,0.187074829931973,"3"
"87",0,2,1,"1",87,5,"goal","goalie","football",0,12.98414302,"1",0.0103806228373702,0.0364963503649635,NA,0.0656934306569343,24,3,4.87544483985765,3.16106586187544,0.177935943060498,"3"
"88",0,1,2,"1",88,5,"position","placement","put",0,19.23980904,"0",0.0136986301369863,0.051792828685259,NA,0.0239043824701195,3,9,1.96587412587413,3.28746933674201,0.101818181818182,"2"
"89",0,2,1,"1",89,5,"benefit","advantage","cheat",0,17.78833604,"0",0.0274914089347079,0.0411985018726592,0.00355871886120996,0.0149812734082397,2,12,2.19067935674434,4.34337253265979,0.0902527075812274,"1"
"90",0,1,2,"1",90,5,"detail","specific","type",0,17.47233796,"0",0.0179856115107914,0.0545454545454545,NA,NA,1,NA,1,4.25039802536643,0.0545454545454545,"1"
"91",0,2,1,"1",91,5,"risk","danger","warning",0,20.70654798,"0",0.0866425992779783,0.0272108843537415,0.130281690140845,0.0408163265306122,12,3,3.56438127090301,4.63974932864615,0.096989966555184,"2"
"92",0,1,2,"1",92,5,"email","mail","letters",0,68.74667192,"0",0.0445205479452055,0.0735785953177258,0.0785714285714286,0.0301003344481605,8,7,3.13247718823927,4.56599199140814,0.230483271375465,"3"
"93",0,2,1,"1",93,5,"skill","talent","show",0,6.2957468,"1",0.0880281690140845,0.0985915492957746,0.00342465753424658,0.0915492957746479,4,2,1.26785714285714,4.41666429155832,0.125,"2"
"94",0,1,2,"1",94,5,"security","national","pride",0,12.66739106,"0",NA,0.0106382978723404,0.00374531835205993,0.0851063829787234,32,2,13.3819444444444,4.58120009366449,0.142361111111111,"2"
"95",0,2,1,"1",95,5,"policy","legislation","law",0,10.04829502,"1",0.0036101083032491,0.00337837837837838,0.0136986301369863,0.155405405405405,88,1,16.5017421602787,3.01611001174525,0.0557491289198606,"1"
"96",0,1,2,"1",96,5,"device","gadget","tool",0,18.98985505,"0",0.055363321799308,0.0174825174825175,NA,0.0874125874125874,7,2,3.92346570397112,3.38874415515252,0.0685920577617329,"1"
"97",0,2,1,"1",97,5,"solution","answer","question",0,9.12242007,"2",0.124137931034483,0.0517241379310345,0.197916666666667,0.227586206896552,5,1,2.08826945412311,5.2454488838351,0.10801393728223,"2"
"98",0,1,2,"1",98,5,"education","school","university",0,10.82327509,"1",0.175084175084175,0.0412371134020619,0.106896551724138,0.00687285223367698,10,38,2.25775862068966,5.52202752101351,0.0931034482758621,"2"
"99",0,2,1,"1",99,5,"character","actor","actress",0,21.39794803,"0",0.0547945205479452,NA,0.106164383561644,0.0968858131487889,NA,1,NA,4.42023341086227,0.127147766323024,"2"
"100",0,1,2,"1",100,5,"material","cloth","towel",0,16.98024082,"2",0.0709219858156028,0.0315789473684211,0.0273037542662116,0.0210526315789474,5,9,2.52893518518519,3.7859887361629,0.0798611111111111,"1"
"101",0,2,1,"1",101,6,"organization","gathering","crowd",0,34.08557796,"0",0.00343642611683849,0.00350877192982456,0.0207612456747405,0.0210526315789474,177,9,14.1992882562278,3.86120805175951,0.0498220640569395,"1"
"102",0,1,2,"1",102,6,"interest","compound","prison",0,27.912956,"0",0.0109489051094891,0.024822695035461,NA,0.0177304964539007,8,13,3.1685393258427,3.85054271267763,0.0786516853932584,"1"
"103",0,2,1,"1",103,6,"source","origin","start",0,10.149441,"1",0.0766423357664234,0.027681660899654,NA,0.103806228373702,3,2,1.80625,3.64976898914491,0.05,"1"
"104",0,1,2,"1",104,6,"top","summit","complete",0,20.82199717,"2",0.00344827586206897,0.180212014134276,NA,NA,4,NA,1.29917522564581,3.52483025253661,0.234126984126984,"4"
"105",0,2,1,"1",105,6,"court","jury","court",1,22.43738985,"0",0.0338983050847458,0.112627986348123,0.0338983050847458,0.112627986348123,10,2,1.47979797979798,4.63068888839678,0.166666666666667,"3"
"106",0,1,2,"1",106,6,"kind","caring","parent",0,30.25327992,"0",0.0309278350515464,0.0592334494773519,0.00680272108843537,0.0104529616724739,25,21,2.93345848977889,3.84813664291175,0.173758865248227,"3"
"107",0,2,1,"1",107,6,"training","learning","study",0,17.57223701,"0",0.0616438356164384,0.00680272108843537,NA,0.0136054421768707,42,13,13.1641791044776,4.3076128985335,0.0895522388059701,"1"
"108",0,1,2,"1",108,6,"college","university","professor",0,14.21773291,"1",0.151515151515152,0.162068965517241,0.0902777777777778,0.0172413793103448,2,9,1.03897053447393,NA,0.168384879725086,"3"
"109",0,2,1,"1",109,6,"term","phrase","sentence",0,18.52395201,"2",0.0102739726027397,0.0034965034965035,0.0380622837370242,0.185314685314685,48,1,20.639175257732,3.95928709503441,0.0721649484536082,"1"
"110",0,1,2,"1",110,6,"history"," museum","artifacts",0,27.09383202,"1",NA,NA,NA,NA,NA,NA,NA,NA,0.156488549618321,"2"
"111",0,2,1,"1",111,6,"photo","picture","photo",1,8.24682999,"1",0.206293706293706,0.114478114478114,0.206293706293706,0.114478114478114,2,2,1.54881101376721,5.14076185537154,0.177304964539007,"3"
"112",0,1,2,"1",112,6,"building","structure","building",1,36.10770082,"0",0.0416666666666667,0.268292682926829,0.0416666666666667,0.268292682926829,1,1,1,4.00783748577926,0.268292682926829,"4"
"113",0,2,1,"1",113,6,"media","social","club",0,8.6263752,"0",0.0334448160535117,0.0203389830508475,0.00336700336700337,0.0101694915254237,9,20,2.9327485380117,4.52330373257514,0.0596491228070175,"1"
"114",0,1,2,"1",114,6,"version","newest","new",0,14.68641114,"1",NA,NA,NA,NA,NA,NA,NA,3.59718551159108,0.0145454545454545,"1"
"115",0,2,1,"1",115,6,"eye","eye pupil","iris",0,22.49229002,"0",NA,NA,NA,NA,NA,NA,NA,NA,0.334630350194553,"4"
"116",0,1,2,"1",116,6,"action","adventure","action",1,15.66938281,"1",0.00350877192982456,0.0069204152249135,0.00350877192982456,0.0069204152249135,117,24,17.3604240282686,4.12815825785121,0.120141342756184,"2"
"117",0,2,1,"1",117,6,"credit","card","credit",1,30.73283505,"0",0.207746478873239,0.0472972972972973,0.207746478873239,0.0472972972972973,4,3,3.76207422470768,4.9311213680547,0.177935943060498,"3"
"118",0,1,2,"1",118,6,"energy","electricity","power",0,19.01022196,"0",0.0244755244755245,0.034965034965035,0.0813559322033898,0.146853146853147,32,1,6.63346007604563,4.05899000822664,0.231939163498099,"3"
"119",0,2,1,"1",119,6,"piece","part","section",0,10.40976906,"0",0.0896551724137931,0.115646258503401,0.152777777777778,0.0408163265306122,4,5,1.98161764705882,5.41692485522709,0.229166666666667,"3"
"120",0,1,2,"1",120,6,"date","calendar","date",1,14.31810689,"1",0.0949152542372881,0.0909090909090909,0.0949152542372881,0.0909090909090909,2,3,1.07692307692308,3.85293552579352,0.0979020979020979,"2"
"121",0,4,3,"2",1,1,"book","read","book",1,13.09744215,"0",0.178451178451178,0.178947368421053,0.178451178451178,0.178947368421053,10,1,1.59389529007479,5.38184516615161,0.285223367697594,"4"
"122",0,3,4,"2",2,1,"list","bullet points","list",1,23.61870003,"1",0.00344827586206897,NA,0.00344827586206897,NA,NA,NA,NA,NA,0.226480836236934,"3"
"123",0,4,3,"2",3,1,"question","ask","question",1,25.9290781,"1",0.0972222222222222,0.212328767123288,0.0972222222222222,0.212328767123288,4,1,1.25591397849462,5.68349247086693,0.266666666666667,"4"
"124",0,3,4,"2",4,1,"problem","solve","answer",0,16.96424389,"1",0.0836236933797909,0.149466192170818,NA,0.0462633451957295,5,4,1.56032306915699,4.28965722289019,0.23321554770318,"4"
"125",0,4,3,"2",5,1,"class","lesson","teach",0,48.8999691,"0",0.00673400673400673,0.0410958904109589,0.00684931506849315,0.089041095890411,13,2,2.06360424028269,4.50800004443045,0.0848056537102474,"1"
"126",0,3,4,"2",6,1,"color","hue","color",1,34.99779797,"0",0.0486111111111111,0.312267657992565,0.0486111111111111,0.312267657992565,1,1,1,3.14916663857573,0.312267657992565,"4"
"127",0,4,3,"2",7,1,"project","assignment","mark",0,33.47146797,"0",0.0173611111111111,0.0392857142857143,NA,0.00357142857142857,1,66,1,4.25230491967876,0.0392857142857143,"1"
"128",0,3,4,"2",8,1,"video","film","movie",0,36.3632791,"0",0.0538720538720539,0.0168350168350168,0.155709342560554,0.259259259259259,17,1,8.45474452554745,4.81414793730113,0.142335766423358,"2"
"129",0,4,3,"2",9,1,"power","might","possibly",0,60.196486,"2",0.0203389830508475,0.0854092526690391,0.0259259259259259,0.0213523131672598,11,11,1.71940559440559,5.71236746483796,0.146853146853147,"2"
"130",0,3,4,"2",10,1,"quality","quantity","amount",0,12.55994701,"1",0.074468085106383,0.120754716981132,0.0992647058823529,0.211320754716981,1,1,1,3.27410537518403,0.120754716981132,"2"
"131",0,4,3,"2",11,1,"reason","logic","rationality",0,32.08895302,"0",0.112280701754386,0.0736842105263158,NA,0.00701754385964912,8,35,2.44485294117647,3.82712826218723,0.180147058823529,"3"
"132",0,3,4,"2",12,1,"university","college","university",1,22.98723316,"2",0.162068965517241,0.151515151515152,0.162068965517241,0.151515151515152,1,1,1,4.92982392292915,0.151515151515152,"2"
"133",0,4,3,"2",13,1,"research","experiment","test",0,17.03990793,"0",0.0068259385665529,0.0207612456747405,0.0174825174825175,0.0865051903114187,20,2,3.34002433090024,4.20933965169701,0.0693430656934307,"1"
"134",0,3,4,"2",14,1,"market","grocery store","supermarket",0,24.49448109,"0",0.00340136054421769,0.0359712230215827,0.0101351351351351,0.0323741007194245,9,5,3.92932862190813,NA,0.141342756183746,"2"
"135",0,4,3,"2",15,1,"leader","follower","leader",1,18.27767897,"1",0.0287769784172662,0.180451127819549,0.0287769784172662,0.180451127819549,1,1,1,2.83590218649474,0.180451127819549,"3"
"136",0,3,4,"2",16,1,"body","limbs","arms",0,28.89051318,"0",NA,NA,0.0318021201413428,NA,NA,NA,NA,3.41568578311155,0.203448275862069,"3"
"137",0,4,3,"2",17,1,"community","neighborhood","block",0,67.28461194,"1",0.0540540540540541,0.0547945205479452,0.0102040816326531,0.0205479452054795,2,11,1.07352941176471,4.56413998654655,0.0588235294117647,"1"
"138",0,3,4,"2",18,1,"student","learner","student",1,19.17473698,"1",0.0748299319727891,0.167272727272727,0.0748299319727891,0.167272727272727,2,1,1.47409172126266,3.08422583164271,0.246575342465753,"4"
"139",0,4,3,"2",19,1,"car","vehicle","car",1,9.257972,"1",0.0513698630136986,0.292517006802721,0.0513698630136986,0.292517006802721,2,1,1.01379310344828,NA,0.296551724137931,"4"
"140",0,3,4,"2",20,1,"information","facts","truth",0,38.48955107,"1",0.0206896551724138,0.0347222222222222,NA,0.142361111111111,19,1,3.28235294117647,4.43609691590645,0.113970588235294,"2"
"141",0,4,3,"2",21,2,"event","happening","occurring",0,48.28242993,"1",0.0719424460431655,0.127413127413127,NA,0.027027027027027,3,6,1.07668745213872,4.95638210439101,0.137184115523466,"2"
"142",0,3,4,"2",22,2,"word","letter","note",0,52.88004994,"0",0.0144404332129964,0.0269360269360269,0.0410958904109589,0.0134680134680135,52,17,5.55520072992701,4.91652867341654,0.14963503649635,"2"
"143",0,4,3,"2",23,2,"option","possibility","chance",0,17.47741103,"2",0.0185185185185185,0.0214285714285714,0.0173611111111111,0.121428571428571,9,1,3.71395617070358,4.30719389755367,0.0795847750865052,"1"
"144",0,3,4,"2",24,2,"hand","fingers","hand",1,6.69002604,"0",0.0644067796610169,0.0655172413793104,0.0644067796610169,0.0655172413793104,17,4,4.13377192982456,4.52151598446214,0.270833333333333,"4"
"145",0,4,3,"2",25,2,"food","sustenance","food",1,14.2257309,"0",0.0479452054794521,0.296137339055794,0.0479452054794521,0.296137339055794,2,1,1.00359785142394,2.76895539686412,0.297202797202797,"4"
"146",0,3,4,"2",26,2,"design","layout","plan",0,13.0708611,"0",0.0103092783505155,0.0696864111498258,0.00341296928327645,0.0975609756097561,4,1,1.94322916666667,3.54468717312435,0.135416666666667,"2"
"147",0,4,3,"2",27,2,"hour","minutes","seconds",0,27.01098013,"1",0.0245614035087719,0.0454545454545455,0.193771626297578,0.181818181818182,3,2,1.93243243243243,5.43562934599023,0.0878378378378378,"1"
"148",0,3,4,"2",28,2,"application","use","operate",0,60.95190096,"0",0.0482758620689655,0.00392156862745098,0.034965034965035,NA,24,NA,28.2321428571429,NA,0.110714285714286,"2"
"149",0,4,3,"2",29,2,"experience","knowledge","wisdom",0,22.24603105,"1",0.043956043956044,0.0136986301369863,0.0989761092150171,0.0376712328767123,15,7,4.27838827838828,4.40677855785705,0.0586080586080586,"1"
"150",0,3,4,"2",30,2,"story","tale","story",1,7.00703692,"1",0.168384879725086,0.240549828178694,0.168384879725086,0.240549828178694,3,1,1.20223992035839,4.07929461666287,0.289198606271777,"4"
"151",0,4,3,"2",31,2,"health","constitution","amendment",0,22.49881196,"0",NA,0.0459363957597173,NA,0.00706713780918728,17,23,5.11305776074459,3.74362057766875,0.234875444839858,"4"
"152",0,3,4,"2",32,2,"friend","pal","friend",1,4.70359397,"2",0.073943661971831,0.298932384341637,0.073943661971831,0.298932384341637,1,1,1,4.7598859335987,0.298932384341637,"4"
"153",0,4,3,"2",33,2,"study","revise","study",1,15.27725887,"0",NA,0.0412371134020619,NA,0.0412371134020619,43,3,4.57384341637011,2.9450466559198,0.188612099644128,"3"
"154",0,3,4,"2",34,2,"week","month","calendar",0,21.03383398,"2",0.0968858131487889,0.0505050505050505,0.111111111111111,0.0572390572390572,3,3,1.25052631578947,4.97802337638848,0.0631578947368421,"1"
"155",0,4,3,"2",35,2,"change","switch","change",1,21.21523809,"1",0.0136518771331058,0.157894736842105,0.0136518771331058,0.157894736842105,11,1,2.10340632603406,4.44868604321447,0.332116788321168,"4"
"156",0,3,4,"2",36,2,"business","working","employed",0,108.055238,"0",NA,NA,0.0817843866171004,0.00673400673400673,NA,23,NA,NA,0.160714285714286,"2"
"157",0,4,3,"2",37,2,"team","group","cluster",0,26.7526381,"0",0.0875420875420875,0.034965034965035,0.166666666666667,0.013986013986014,11,15,3.89044117647059,4.86736836046432,0.136029411764706,"2"
"158",0,3,4,"2",38,2,"thing","object","thing",1,9.92536497,"1",0.145038167938931,0.188405797101449,0.145038167938931,0.188405797101449,2,1,1.02667040988209,4.41075989497024,0.193430656934307,"3"
"159",0,4,3,"2",39,2,"plan","outline","trace",0,28.1545589,"0",0.0102389078498294,0.014336917562724,0.0277777777777778,0.014336917562724,62,18,17.1399317406143,3.3130234412144,0.245733788395904,"4"
"160",0,3,4,"2",40,2,"page","book","read",0,28.74007297,"0",0.20979020979021,0.0269360269360269,0.178947368421053,0.178451178451178,4,1,1.65850515463918,5.2473775846042,0.0446735395189003,"1"
"161",0,4,3,"2",41,3,"paper","loose leaf","booklet",0,29.68974996,"0",NA,NA,NA,NA,NA,NA,NA,NA,0.297297297297297,"4"
"162",0,3,4,"2",42,3,"career","job","work",0,7.26627302,"0",0.229452054794521,0.0446735395189003,0.0588235294117647,0.209621993127148,5,1,2.614261650758,5.61537498824247,0.116788321167883,"2"
"163",0,4,3,"2",43,3,"dog","pet","dog",1,8.83981013,"0",0.0586206896551724,0.22108843537415,0.0586206896551724,0.22108843537415,19,1,1.47455621301775,4.30467136684963,0.326007326007326,"4"
"164",0,3,4,"2",44,3,"percent","fraction","piece",0,23.9737401,"0",0.0391459074733096,0.013745704467354,0.00344827586206897,0.0412371134020619,6,4,2.82773851590106,3.3130234412144,0.03886925795053,"1"
"165",0,4,3,"2",45,3,"science","chemistry","attraction",0,34.91046214,"0",0.0440677966101695,0.147766323024055,0.0069204152249135,NA,4,NA,1.19425444596443,3.93823786836753,0.176470588235294,"3"
"166",0,3,4,"2",46,3,"computer","program","course",0,45.67001104,"1",0.0104529616724739,0.168421052631579,0.00342465753424658,0.0140350877192982,18,9,1.53935185185185,4.62929340343512,0.259259259259259,"4"
"167",0,4,3,"2",47,3,"girl","boy","girl",1,16.94576097,"1",0.178451178451178,0.237113402061856,0.178451178451178,0.237113402061856,3,1,1.10901771336554,5.72355163179047,0.262962962962963,"4"
"168",0,3,4,"2",48,3,"director","producer","director",1,14.2273128,"0",0.0205479452054795,0.0620689655172414,0.0205479452054795,0.0620689655172414,1,2,1,4.09597357447981,0.0620689655172414,"1"
"169",0,4,3,"2",49,3,"link","connection","link",1,14.74516702,"1",0.0580204778156997,0.0437956204379562,0.0580204778156997,0.0437956204379562,3,1,3.48842592592593,4.43391060321775,0.152777777777778,"2"
"170",0,3,4,"2",50,3,"difference","similarity","commonality",0,41.09880114,"0",0.0291970802919708,0.0566037735849057,NA,0.00377358490566038,4,42,2.28194444444444,2.86003586621145,0.129166666666667,"2"
"171",0,4,3,"2",51,3,"help","aid","help",1,3.22663713,"1",0.125,0.256055363321799,0.125,0.256055363321799,3,1,1.20712530712531,4.14309249086353,0.309090909090909,"4"
"172",0,3,4,"2",52,3,"software","digital","analogue",0,13.53531194,"1",0.00344827586206897,0.00357142857142857,NA,0.00357142857142857,85,35,35.7241379310345,3.73274322420968,0.127586206896552,"2"
"173",0,4,3,"2",53,3,"chance","luck","fortune",0,7.24375105,"1",0.104166666666667,0.0830449826989619,0.0798611111111111,0.0761245674740484,7,3,1.90801056338028,5.1862055960007,0.158450704225352,"2"
"174",0,3,4,"2",54,3,"picture","photograph","camera",0,9.9349308,"1",0.0538720538720539,0.22972972972973,0.0343642611683849,0.0945945945945946,2,2,1.07332796132151,4.0552621357074,0.246575342465753,"4"
"175",0,4,3,"2",55,3,"environment","nature","outdoors",0,8.874439,"1",0.0547945205479452,0.00671140939597315,0.0433333333333333,0.0536912751677852,72,4,17.7754385964912,4.65431661689563,0.119298245614035,"2"
"176",0,3,4,"2",56,3,"death","afterlife","heaven",0,55.42637801,"0",NA,NA,0.0206896551724138,NA,NA,NA,NA,3.20564799452818,0.286713286713287,"4"
"177",0,4,3,"2",57,3,"force","strength","weakness",0,9.32452011,"0",0.0314685314685315,0.0205479452054795,0.0938628158844765,0.0171232876712329,37,9,9.44278606965174,4.56691504060132,0.194029850746269,"3"
"178",0,3,4,"2",58,3,"future","past","future",1,20.464257,"1",0.117647058823529,0.0921501706484642,0.117647058823529,0.0921501706484642,8,2,1.59706498951782,5.09206993147181,0.147169811320755,"2"
"179",0,4,3,"2",59,3,"brand","logo","trademark",0,66.05459404,"0",0.0205479452054795,0.131868131868132,0.0833333333333333,0.0256410256410256,1,8,1,3.2603170906984,0.131868131868132,"2"
"180",0,3,4,"2",60,3,"couple","pair","duo",0,8.48780108,"1",0.115646258503401,0.129692832764505,0.128919860627178,0.0443686006825939,1,6,1,4.5708162590099,0.129692832764505,"2"
"181",0,4,3,"2",61,4,"door","window","wall",0,13.294276,"1",0.0878378378378378,0.0608108108108108,0.0134228187919463,0.00337837837837838,36,82,4.72541507024266,NA,0.28735632183908,"4"
"182",0,3,4,"2",62,4,"film","movie","film",1,10.87314606,"1",0.259259259259259,0.155709342560554,0.259259259259259,0.155709342560554,2,1,1.0140350877193,5.08924019182084,0.157894736842105,"2"
"183",0,4,3,"2",63,4,"situation","event","happening",0,46.62318802,"0",0.0380228136882129,NA,0.127413127413127,0.0719424460431655,NA,2,NA,4.42087920203242,0.145098039215686,"2"
"184",0,3,4,"2",64,4,"review","rate","score",0,24.15009499,"0",0.00364963503649635,0.00343642611683849,0.00341296928327645,0.0309278350515464,91,5,25.2520661157025,4.39632125345685,0.0867768595041322,"1"
"185",0,4,3,"2",65,4,"vehicle","car","drive",0,8.92516398,"1",0.292517006802721,0.0513698630136986,0.238754325259516,0.0684931506849315,3,1,1.08524970963995,5.68342196565441,0.0557491289198606,"1"
"186",0,3,4,"2",66,4,"president","election","vote",0,27.18570399,"1",0.013986013986014,0.112627986348123,0.0944055944055944,0.146757679180887,5,1,2.33968058968059,4.04079700340062,0.263513513513513,"4"
"187",0,4,3,"2",67,4,"payment","bills","dollar",0,55.06217098,"0",0.0316901408450704,0.0134680134680135,0.0101351351351351,0.0168350168350168,28,8,3.81421232876712,4.33204076971917,0.0513698630136986,"1"
"188",0,3,4,"2",68,4,"table","chair","table",1,9.18775606,"1",0.118243243243243,0.105263157894737,0.118243243243243,0.105263157894737,4,2,1.65505226480836,4.69185377720962,0.174216027874564,"3"
"189",0,4,3,"2",69,4,"summer","winter","spring",0,14.46319819,"0",0.11744966442953,0.0536912751677852,0.0374149659863946,0.0302013422818792,18,6,3.43259385665529,NA,0.184300341296928,"3"
"190",0,3,4,"2",70,4,"relationship","couple","pair",0,18.27087903,"0",0.0207612456747405,0.0204081632653061,0.129692832764505,0.115646258503401,33,2,4.11188811188811,5.34854847166085,0.0839160839160839,"1"
"191",0,4,3,"2",71,4,"club","society","club",1,25.84513903,"1",0.0134680134680135,0.0102739726027397,0.0134680134680135,0.0102739726027397,51,11,17.912037037037,4.51714342387032,0.184027777777778,"3"
"192",0,3,4,"2",72,4,"message","text","words",0,12.25609994,"1",0.114982578397213,0.0915492957746479,0.00342465753424658,0.073943661971831,2,3,1.1798445456982,NA,0.10801393728223,"2"
"193",0,4,3,"2",73,4,"weight","kilograms","pounds",0,31.16020584,"0",0.0102389078498294,NA,0.0107142857142857,NA,NA,NA,NA,2.0699853925281,0.271428571428571,"4"
"194",0,3,4,"2",74,4,"decision","choice","option",0,4.41638207,"1",0.0738007380073801,0.0830449826989619,0.281481481481481,0.0795847750865052,1,2,1,4.98871451382722,0.0830449826989619,"1"
"195",0,4,3,"2",75,4,"sense","feel","touch",0,25.99339795,"1",0.0921501706484642,0.0740740740740741,0.211469534050179,0.195286195286195,3,1,2.22352941176471,5.79684838222857,0.164705882352941,"3"
"196",0,3,4,"2",76,4,"treatment","medicine","pills",0,36.92443705,"0",0.0673758865248227,0.00348432055749129,0.127586206896552,0.0348432055749129,79,7,8.34909090909091,4.53362957343966,0.0290909090909091,"1"
"197",0,4,3,"2",77,4,"bank","money","cash",0,42.85441995,"1",0.228956228956229,0.0170068027210884,0.291095890410959,0.129251700680272,66,1,15.0266666666667,5.80611619000484,0.255555555555556,"4"
"198",0,3,4,"2",78,4,"comment","respond","reply",0,76.70917392,"0",0.0141843971631206,NA,0.105839416058394,0.124542124542125,NA,2,NA,4.14916663857573,0.121673003802281,"2"
"199",0,4,3,"2",79,4,"skin","epidermis","shot",0,9.32752705,"0",0.0106382978723404,NA,NA,NA,NA,NA,NA,2.49595412480038,0.23469387755102,"4"
"200",0,3,4,"2",80,4,"purpose","reason","logic",0,20.86184597,"0",0.0854092526690391,0.0175438596491228,0.0736842105263158,0.112280701754386,16,1,5.14285714285714,5.28566700875845,0.0902255639097744,"1"
"201",0,4,3,"2",81,5,"part","portion","size",0,26.39113498,"0",0.0170068027210884,0.0954063604240283,NA,0.0424028268551237,5,4,2.91792158458825,3.6381871165951,0.278388278388278,"4"
"202",0,3,4,"2",82,5,"love","infatuation","crush",0,13.70575905,"0",NA,0.192307692307692,0.0206185567010309,0.0730769230769231,10,3,1.56363636363636,2.93528681863065,0.300699300699301,"4"
"203",0,4,3,"2",83,5,"school","education","school",1,18.50225687,"0",0.0412371134020619,0.175084175084175,0.0412371134020619,0.175084175084175,5,1,1.63468169761273,4.29052930045612,0.286206896551724,"4"
"204",0,3,4,"2",84,5,"house","home","house",1,4.19821596,"0",0.257627118644068,0.163879598662207,0.257627118644068,0.163879598662207,12,1,1.43336529242569,5.88834327048646,0.23489932885906,"4"
"205",0,4,3,"2",85,5,"government","politics","election",0,43.30596399,"0",0.0616438356164384,0.0594405594405594,0.0648464163822526,0.013986013986014,25,7,4.1047099252072,4.21920450518348,0.243986254295533,"4"
"206",0,3,4,"2",86,5,"work","labor","effort",0,15.73898005,"0",0.0346020761245675,0.231034482758621,NA,0.0103448275862069,2,16,1.06197636353548,4.08562452683528,0.245353159851301,"4"
"207",0,4,3,"2",87,5,"party","birthday","party",1,42.55683994,"0",0.0402684563758389,0.112244897959184,0.0402684563758389,0.112244897959184,20,2,2.310890474713,4.98722825043557,0.25938566552901,"4"
"208",0,3,4,"2",88,5,"language","linguistics","program",0,52.054281,"2",0.00673400673400673,0.224913494809689,NA,NA,3,NA,1.15721812434141,2.70680749011528,0.26027397260274,"4"
"209",0,4,3,"2",89,5,"life","death","life",1,40.33773589,"0",0.119298245614035,0.0763888888888889,0.119298245614035,0.0763888888888889,9,1,1.57833655705996,5.33527501838893,0.120567375886525,"2"
"210",0,3,4,"2",90,5,"price","cost","price",1,25.17399287,"2",0.217993079584775,0.194444444444444,0.217993079584775,0.194444444444444,1,1,1,4.73930227309422,0.194444444444444,"3"
"211",0,4,3,"2",91,5,"system","cycle","loop",0,92.148705,"0",NA,0.00344827586206897,0.00346020761245675,NA,251,NA,32.6760563380282,3.7704006377383,0.112676056338028,"2"
"212",0,3,4,"2",92,5,"music","song","sing",0,23.46766996,"0",0.0513698630136986,0.176271186440678,0.184300341296928,0.108474576271186,29,2,1.68017957652104,4.97117117266525,0.29616724738676,"4"
"213",0,4,3,"2",93,5,"case","luggage","baggage",0,33.88283801,"0",0.0136518771331058,0.0102389078498294,0.161512027491409,0.0921501706484642,30,2,10.9277389277389,4.04618247785548,0.111888111888112,"2"
"214",0,3,4,"2",94,5,"course","degree","diploma",0,10.35032701,"1",NA,0.00342465753424658,0.0958904109589041,0.00684931506849315,133,25,26.7323943661972,4.17264773442525,0.0915492957746479,"1"
"215",0,4,3,"2",95,5,"point","direct","guide",0,44.89559698,"0",0.0102739726027397,0.0104895104895105,0.00716845878136201,NA,78,NA,15.3447488584475,4.38067870487146,0.160958904109589,"2"
"216",0,3,4,"2",96,5,"voice","speak","talk",0,16.05501986,"0",0.0887372013651877,0.0273037542662116,0.11986301369863,0.191126279863481,20,1,4.1676724137931,5.27170106470936,0.113793103448276,"2"
"217",0,4,3,"2",97,5,"money","cash","money",1,4.80611801,"2",0.129251700680272,0.291095890410959,0.129251700680272,0.291095890410959,1,1,1,4.8594485848753,0.291095890410959,"4"
"218",0,3,4,"2",98,5,"man","woman","man",1,4.63233709,"0",0.221843003412969,0.172881355932203,0.221843003412969,0.172881355932203,3,1,1.14501773405608,NA,0.197952218430034,"3"
"219",0,4,3,"2",99,5,"idea","brainstorm","generate",0,23.22274303,"1",0.0106382978723404,0.0373134328358209,NA,0.00373134328358209,23,68,7.38970588235294,2.9046179988642,0.275735294117647,"4"
"220",0,3,4,"2",100,5,"face","expression","saying",0,22.91266799,"0",0.0238095238095238,0.087719298245614,0.0140350877192982,0.0315789473684211,17,7,2.48727272727273,4.10608173787638,0.218181818181818,"3"
"221",0,4,3,"2",101,6,"country","nation","state",0,5.14198995,"2",0.0616438356164384,0.216783216783217,0.041958041958042,0.0524475524475524,1,2,1,4.31136582667571,0.216783216783217,"3"
"222",0,3,4,"2",102,6,"company","guests","hosts",0,13.28710198,"1",0.037542662116041,NA,NA,NA,NA,NA,NA,4.4097679771841,0.127208480565371,"2"
"223",0,4,3,"2",103,6,"child","kid","child",1,3.97453094,"1",0.0816326530612245,0.236933797909408,0.0816326530612245,0.236933797909408,1,1,1,5.52988024527326,0.236933797909408,"4"
"224",0,3,4,"2",104,6,"day","night","day",1,5.56428981,"0",0.191919191919192,0.10472972972973,0.191919191919192,0.10472972972973,5,2,1.7837646224743,5.936951708951,0.186813186813187,"3"
"225",0,4,3,"2",105,6,"time","clock","time",1,7.64443803,"2",0.141379310344828,0.261744966442953,0.141379310344828,0.261744966442953,1,1,1,4.76765055517578,0.261744966442953,"4"
"226",0,3,4,"2",106,6,"right","left","right",1,7.03246903,"2",0.197278911564626,0.253424657534247,0.197278911564626,0.253424657534247,1,1,1,5.68467173481012,0.253424657534247,"4"
"227",0,4,3,"2",107,6,"church","steeple","church",1,28.86289001,"2",0.0774410774410774,0.299270072992701,0.0774410774410774,0.299270072992701,1,1,1,2.63425682296667,0.299270072992701,"4"
"228",0,3,4,"2",108,6,"water","drink","eat",0,34.50422096,"0",0.0949152542372881,0.160958904109589,0.0827586206896552,0.023972602739726,45,14,1.94563489058832,5.39282466521442,0.313167259786477,"4"
"229",0,4,3,"2",109,6,"group","people","humans",0,23.42607284,"0",0.0594405594405594,0.0409556313993174,0.177474402730375,0.0511945392491468,60,1,4.06944444444444,6.04197983068259,0.166666666666667,"3"
"230",0,3,4,"2",110,6,"nature","outdoors","nature",1,5.96346879,"0",0.0536912751677852,0.0433333333333333,0.0536912751677852,0.0433333333333333,14,4,4.03055848261328,3.32525789763141,0.174657534246575,"3"
"231",0,4,3,"2",111,6,"south","north","south",1,6.61098695,"2",0.189189189189189,0.213058419243986,0.189189189189189,0.213058419243986,1,1,1,4.8049185026096,0.213058419243986,"3"
"232",0,3,4,"2",112,6,"world","globe","earth",0,15.02912879,"2",0.1280276816609,0.174825174825175,0.0168350168350168,0.143356643356643,1,2,1,3.71834540350904,0.174825174825175,"3"
"233",0,4,3,"2",113,6,"mother","father","mother",1,5.58861494,"2",0.11744966442953,0.184300341296928,0.11744966442953,0.184300341296928,2,1,1.16733067729084,5.74331354726932,0.215139442231076,"3"
"234",0,3,4,"2",114,6,"way","direction","advice",0,33.66819596,"2",0.0314685314685315,0.0586206896551724,0.0036231884057971,NA,11,NA,2.37895158063225,4.38138602503091,0.139455782312925,"2"
"235",0,4,3,"2",115,6,"police","cops","police",1,18.50401807,"2",0.0505050505050505,0.248275862068966,0.0505050505050505,0.248275862068966,2,1,1.05454545454545,4.92439265667713,0.261818181818182,"4"
"236",0,3,4,"2",116,6,"end","beginning","start",0,3.91261601,"2",0.0650684931506849,0.18705035971223,0.0204778156996587,0.255395683453237,7,1,1.29045092838196,4.79969001384029,0.241379310344828,"4"
"237",0,4,3,"2",117,6,"fact","fiction","fact",1,31.73193097,"0",0.121863799283154,0.0347222222222222,0.121863799283154,0.0347222222222222,5,7,2.2468085106383,3.7845945311713,0.0780141843971631,"1"
"238",0,3,4,"2",118,6,"game","play","game",1,5.91266203,"0",0.162162162162162,0.0508474576271186,0.162162162162162,0.0508474576271186,69,4,4.69651741293532,5.54908060705183,0.238805970149254,"4"
"239",0,4,3,"2",119,6,"street","road","path",0,24.17703605,"1",0.166101694915254,0.0973154362416107,0.119047619047619,0.063758389261745,7,2,2.4889631308913,5.04847025039031,0.242214532871972,"4"
"240",0,3,4,"2",120,6,"year","months","days",0,52.98352408,"1",0.00342465753424658,0.0631970260223048,0.0982456140350877,0.156133828996283,8,2,2.66389384036443,5.2116963957,0.168350168350168,"3"
"241",0,5,6,"3",1,1,"section","sect","sector",0,21.32870388,"0",NA,0.024,NA,0.012,11,11,2.88929440389294,2.87161773876127,0.0693430656934307,"1"
"242",0,6,5,"3",2,1,"technology","tech","technology",1,9.7480402,"1",NA,0.0772058823529412,NA,0.0772058823529412,1,2,1,3.80638189480475,0.0772058823529412,"1"
"243",0,5,6,"3",3,1,"industry",NA,"industry",1,16.41617107,"0",NA,NA,NA,NA,NA,NA,NA,NA,0.0505050505050505,"1"
"244",0,6,5,"3",4,1,"million","mil","military",0,16.49190307,"1",0.00347222222222222,NA,NA,NA,NA,NA,NA,3.45915147689264,0.137931034482759,"2"
"245",0,5,6,"3",5,1,"opportunity",NA,"opportunity",1,11.97177005,"2",NA,NA,NA,NA,NA,NA,NA,NA,0.0833333333333333,"1"
"246",0,6,5,"3",6,1,"activity",NA,"action",0,16.53244996,"0",NA,NA,NA,NA,NA,NA,NA,NA,0.0515463917525773,"1"
"247",0,5,6,"3",7,1,"practice","practical","tutorial",0,32.50664091,"0",0.0034965034965035,0.0181159420289855,NA,NA,16,NA,13.1792387543253,4.05376198056499,0.238754325259516,"4"
"248",0,6,5,"3",8,1,"need","required","requirement",0,13.916991,"2",NA,0.0479704797047971,0.0116731517509728,NA,18,NA,4.77112676056338,4.03061470062883,0.22887323943662,"3"
"249",0,5,6,"3",9,1,"head","brain","thinking",0,28.85359502,"0",0.0456140350877193,0.0657439446366782,0.102112676056338,0.0173010380622837,18,10,3.14522747546833,4.88611617095627,0.206779661016949,"3"
"250",0,6,5,"3",10,1,"feature","attribute","objective",0,17.78159308,"0",0.00350877192982456,0.025,NA,NA,3,NA,1.81184668989547,2.95459197382603,0.0452961672473868,"1"
"251",0,5,6,"3",11,1,"control","dominate","suppress",0,31.15556812,"1",0.00350877192982456,0.0721649484536082,NA,NA,5,NA,2.97952218430034,3.27410537518403,0.215017064846416,"3"
"252",0,6,5,"3",12,1,"rate","price","value",0,30.20935798,"0",0.0206185567010309,NA,0.0604982206405694,0.0449826989619377,NA,3,NA,4.72688178348442,0.0487804878048781,"1"
"253",0,5,6,"3",13,1,"series","netflix","series",1,26.76854205,"0",NA,NA,NA,NA,NA,NA,NA,NA,0.08,"1"
"254",0,6,5,"3",14,1,"space","gap","space",1,25.93072104,"0",NA,0.109965635738832,NA,0.109965635738832,18,1,2.6875,3.63227825698458,0.29553264604811,"4"
"255",0,5,6,"3",15,1,"back","behind","back",1,12.45227003,"2",0.0511945392491468,0.0812720848056537,0.0511945392491468,0.0812720848056537,9,1,2.95980875541611,5.27329030866659,0.240549828178694,"4"
"256",0,6,5,"3",16,1,"office","job","service",0,43.99819303,"0",0.0240549828178694,NA,0.0103448275862069,NA,NA,NA,NA,5.61537498824247,0.127147766323024,"2"
"257",0,5,6,"3",17,1,"care","love","affection",0,44.11900091,"1",0.106896551724138,0.0101694915254237,0.28125,0.0169491525423729,89,10,10.7762557077626,6.04667918562658,0.10958904109589,"2"
"258",0,6,5,"3",18,1,"website","pwa","application",0,22.36852908,"1",NA,NA,NA,NA,NA,NA,NA,NA,0.0821428571428571,"1"
"259",0,5,6,"3",19,1,"effect","consequences","effect",1,35.57257795,"2",NA,NA,NA,NA,NA,NA,NA,4.02422790196743,0.199275362318841,"3"
"260",0,6,5,"3",20,1,"center","middle","between",0,15.65397882,"1",0.214788732394366,0.125435540069686,0.0879120879120879,0.0278745644599303,3,5,1.32410611303345,4.94984553880157,0.166089965397924,"3"
"261",0,5,6,"3",21,2,"network","range","network",1,51.94351506,"1",NA,NA,NA,NA,NA,NA,NA,4.35704027019877,0.0677966101694915,"1"
"262",0,6,5,"3",22,2,"record","voice","speech",0,53.08372378,"1",0.0139372822299652,NA,0.0177935943060498,0.0204778156996587,NA,10,NA,NA,0.199312714776632,"3"
"263",0,5,6,"3",23,2,"article","newspaper","article",1,66.6631372,"1",0.148275862068966,0.0378006872852234,0.148275862068966,0.0378006872852234,3,5,1.52622377622378,4.37426044300523,0.0576923076923077,"1"
"264",0,6,5,"3",24,2,"location","gps","location",1,9.36664295,"1",0.0176678445229682,0.0729166666666667,0.0176678445229682,0.0729166666666667,5,3,1.68944099378882,3.41568578311155,0.123188405797101,"2"
"265",0,5,6,"3",25,2,"park","garden","play",0,29.43688202,"0",0.0169491525423729,NA,NA,NA,NA,NA,NA,4.42377343735488,0.232727272727273,"3"
"266",0,6,5,"3",26,2,"road","highway","road",1,26.24287915,"1",0.0536912751677852,0.175862068965517,0.0536912751677852,0.175862068965517,3,1,1.24323564551269,4.25182898047288,0.218637992831541,"3"
"267",0,5,6,"3",27,2,"staff","teachers","teach",0,30.73404598,"0",NA,0.00338983050847458,NA,0.0101694915254237,100,28,27.3928571428571,4.05675712679435,0.0928571428571429,"1"
"268",0,6,5,"3",28,2,"oil","beard","mustache",0,26.55715299,"1",NA,NA,0.127147766323024,0.0336700336700337,NA,5,NA,4.10072000950427,0.214285714285714,"3"
"269",0,5,6,"3",29,2,"patient","doctor","hospital",0,25.92855501,"1",0.159574468085106,0.037542662116041,0.101010101010101,0.037542662116041,3,4,1.52207792207792,5.42094372836519,0.0571428571428571,"1"
"270",0,6,5,"3",30,2,"department","computer","laptop",0,49.17504215,"0",NA,NA,0.249146757679181,0.0452961672473868,NA,2,NA,4.77068910967312,0.022140221402214,"1"
"271",0,5,6,"3",31,2,"phone","mobile","communication",0,19.813483,"1",0.0240549828178694,0.248299319727891,NA,NA,1,NA,1,3.87389750505617,0.248299319727891,"4"
"272",0,6,5,"3",32,2,"role","actor","role",1,52.87931299,"1",0.0662020905923345,NA,0.0662020905923345,NA,NA,NA,NA,4.42023341086227,0.0442176870748299,"1"
"273",0,5,6,"3",33,2,"rule","allegation","rule",1,52.98174691,"0",NA,NA,NA,NA,NA,NA,NA,2.73899217348668,0.181494661921708,"3"
"274",0,6,5,"3",34,2,"heart","blood","bank",0,45.05011988,"0",0.0436241610738255,0.00342465753424658,NA,0.00684931506849315,563,25,89.5776892430279,5.26923762301789,0.306772908366534,"4"
"275",0,5,6,"3",35,2,"look","see","eye",0,2.00462508,"0",0.221476510067114,0.0983050847457627,0.0909090909090909,0.0406779661016949,13,7,2.3182031433263,6.40709175020568,0.227891156462585,"3"
"276",0,6,5,"3",36,2,"example","instance","moment",0,9.22288609,"0",0.0398406374501992,0.0792452830188679,0.00701754385964912,0.0679245283018868,2,3,1.00952380952381,4.22481496406766,0.08,"1"
"277",0,5,6,"3",37,2,"method","methodology","design",0,34.803756,"1",0.00373134328358209,NA,NA,NA,NA,NA,NA,2.82331305918672,0.0833333333333333,"1"
"278",0,6,5,"3",38,2,"light","bulb","tube",0,12.24974585,"1",0.09,0.298181818181818,NA,NA,1,NA,1,3.59503019956495,0.298181818181818,"4"
"279",0,5,6,"3",39,2,"news","newspaper","article",0,11.81015897,"0",0.0271186440677966,0.0687285223367698,0.148275862068966,0.0378006872852234,10,5,2.32602040816327,4.37426044300523,0.159863945578231,"2"
"280",0,6,5,"3",40,2,"store","shop","shopkeeper",0,13.93484211,"0",0.123239436619718,0.169611307420495,NA,NA,5,NA,1.24802311435523,4.72831483715396,0.211678832116788,"3"
"281",0,5,6,"3",41,3,"source","origin","start",0,16.3195889,"1",0.0766423357664234,0.027681660899654,NA,0.103806228373702,3,2,1.80625,3.64976898914491,0.05,"1"
"282",0,6,5,"3",42,3,"email","id","card",0,10.57582498,"0",NA,NA,0.00675675675675676,0.0395256916996047,NA,5,NA,3.52228306352273,0.230483271375465,"3"
"283",0,5,6,"3",43,3,"character","characteristic","feature",0,30.13216209,"0",NA,0.0298507462686567,0.0210526315789474,0.0373134328358209,8,3,4.25945017182131,3.07716397715523,0.127147766323024,"2"
"284",0,6,5,"3",44,3,"date","anniversary","birth",0,32.80249906,"1",0.00677966101694915,0.056140350877193,NA,NA,8,NA,1.74388111888112,4.26496199574416,0.0979020979020979,"2"
"285",0,5,6,"3",45,3,"eye","eyesight","eye",1,9.10455799,"0",NA,0.0107142857142857,NA,0.0107142857142857,97,15,31.2321660181582,3.29183414214446,0.334630350194553,"4"
"286",0,6,5,"3",46,3,"age","lifetime","life",0,25.58568096,"1",NA,0.0531914893617021,NA,0.0212765957446809,19,7,2.97553956834532,4.2603170906984,0.158273381294964,"2"
"287",0,5,6,"3",47,3,"risk","danger","scare",0,32.54808617,"0",0.0866425992779783,0.0272108843537415,NA,0.0102040816326531,12,30,3.56438127090301,4.63974932864615,0.096989966555184,"2"
"288",0,6,5,"3",48,3,"device","computer","laptop",0,14.85708714,"0",0.0380622837370242,NA,0.249146757679181,0.0452961672473868,NA,2,NA,4.77068910967312,0.0685920577617329,"1"
"289",0,5,6,"3",49,3,"skill","achievement","achieve",0,47.55011201,"1",0.00352112676056338,0.00347222222222222,0.0034965034965035,0.00347222222222222,199,41,36,3.54468717312435,0.125,"2"
"290",0,6,5,"3",50,3,"position","rank","grade",0,8.23629904,"0",0.0376712328767123,0.0242214532871972,0.00348432055749129,0.0069204152249135,9,31,4.20363636363636,3.92932387165697,0.101818181818182,"2"
"291",0,5,6,"3",51,3,"term","terminology","term",1,5.70796514,"2",0.00684931506849315,NA,0.00684931506849315,NA,NA,NA,NA,NA,0.0721649484536082,"1"
"292",0,6,5,"3",52,3,"material","equipment","tools",0,26.13799095,"2",NA,0.0036101083032491,0.0104895104895105,0.137184115523466,138,1,22.1215277777778,4.40544329321749,0.0798611111111111,"1"
"293",0,5,6,"3",53,3,"goal","football","sports",0,15.06648397,"1",0.0449826989619377,0.037542662116041,0.121107266435986,0.0136518771331058,22,15,4.73956648333873,4.5740029204491,0.177935943060498,"3"
"294",0,6,5,"3",54,3,"kind","innocent","quite",0,22.90150881,"0",NA,NA,NA,NA,NA,NA,NA,4.73603513100862,0.173758865248227,"3"
"295",0,5,6,"3",55,3,"photo","photoshop","photo",1,5.45495605,"1",NA,0.0137931034482759,NA,0.0137931034482759,37,19,12.854609929078,NA,0.177304964539007,"3"
"296",0,6,5,"3",56,3,"board","blackboard","black",0,8.27990103,"0",0.00689655172413793,NA,NA,0.0101351351351351,NA,12,NA,3.07716397715523,0.187074829931973,"3"
"297",0,5,6,"3",57,3,"court","courtyard","court",1,3.05458999,"0",NA,NA,NA,NA,NA,NA,NA,3.33322682730268,0.166666666666667,"3"
"298",0,6,5,"3",58,3,"education","qualification","qualify",0,13.81317711,"1",NA,NA,NA,NA,NA,NA,NA,2.4379621778227,0.0931034482758621,"2"
"299",0,5,6,"3",59,3,"benefit","beneficial","benefit",1,4.06709504,"0",NA,0.0223048327137546,NA,0.0223048327137546,4,7,4.04632972322503,2.9046179988642,0.0902527075812274,"1"
"300",0,6,5,"3",60,3,"top","topper","brilliant",0,20.94695807,"2",0.00344827586206897,NA,NA,NA,NA,NA,NA,NA,0.234126984126984,"4"
"301",0,5,6,"3",61,4,"vehicle","drive","car",0,10.36868811,"1",0.0238095238095238,0.00346020761245675,0.0684931506849315,0.238754325259516,131,1,16.1114982578397,5.18454077995013,0.0557491289198606,"1"
"302",0,6,5,"3",62,4,"picture","photo","picture",1,8.79241395,"1",0.114478114478114,0.206293706293706,0.114478114478114,0.206293706293706,4,1,1.19526352449501,4.35853269256746,0.246575342465753,"4"
"303",0,5,6,"3",63,4,"skin","skincare","skin",1,2.96027994,"0",NA,NA,NA,NA,NA,NA,NA,1.59286413780844,0.23469387755102,"4"
"304",0,6,5,"3",64,4,"difference","differentiate","different",0,9.63379788,"0",0.00364963503649635,0.0306513409961686,NA,0.0459770114942529,8,3,4.2140625,2.54710664724777,0.129166666666667,"2"
"305",0,5,6,"3",65,4,"environment","environmentalist","environment",1,16.32148385,"1",0.00342465753424658,NA,0.00342465753424658,NA,NA,NA,NA,2.4379621778227,0.119298245614035,"2"
"306",0,6,5,"3",66,4,"review","crosscheck","cross",0,35.01581001,"0",NA,NA,NA,NA,NA,NA,NA,1.99080414648048,0.0867768595041322,"1"
"307",0,5,6,"3",67,4,"chance","chancellor","chance",1,33.34550595,"1",0.00347222222222222,NA,0.00347222222222222,NA,NA,NA,NA,3.61611659744215,0.158450704225352,"2"
"308",0,6,5,"3",68,4,"death","dead","died",0,24.12403297,"0",0.0104166666666667,0.0170648464163823,NA,NA,231,NA,16.8013986013986,5.65165065924572,0.286713286713287,"4"
"309",0,5,6,"3",69,4,"situation","situational","situation",1,9.93997002,"0",0.00380228136882129,NA,0.00380228136882129,NA,NA,NA,NA,2.1949241291364,0.145098039215686,"2"
"310",0,6,5,"3",70,4,"director","direction","direct",0,8.21413684,"0",0.00684931506849315,NA,0.0034965034965035,NA,NA,NA,NA,4.38138602503091,0.0620689655172414,"1"
"311",0,5,6,"3",71,4,"bank","santander","bank",1,9.84900999,"1",NA,NA,NA,NA,NA,NA,NA,NA,0.255555555555556,"4"
"312",0,6,5,"3",72,4,"couple","relationship","relation",0,35.84706998,"1",0.0204081632653061,0.0207612456747405,0.0346020761245675,NA,18,NA,6.24687144482366,4.83003072049391,0.129692832764505,"2"
"313",0,5,6,"3",73,4,"sense","sensitive","sense",1,2.95064807,"1",NA,NA,NA,NA,NA,NA,NA,4.35253198249807,0.164705882352941,"3"
"314",0,6,5,"3",74,4,"table","tabular","table",1,7.02362585,"1",NA,NA,NA,NA,NA,NA,NA,NA,0.174216027874564,"3"
"315",0,5,6,"3",75,4,"weight","fat","fatigue",0,10.93193817,"0",0.0989761092150171,0.00689655172413793,0.0034965034965035,NA,130,NA,39.3571428571429,4.8995035788327,0.271428571428571,"4"
"316",0,6,5,"3",76,4,"treatment","medicine","medical",0,19.41178203,"0",0.0673758865248227,0.00348432055749129,0.027027027027027,0.00348432055749129,79,76,8.34909090909091,4.53362957343966,0.0290909090909091,"1"
"317",0,5,6,"3",77,4,"payment","pay","payment",1,12.34933281,"0",0.00704225352112676,0.00684931506849315,0.00704225352112676,0.00684931506849315,66,35,7.5,5.4053095406812,0.0513698630136986,"1"
"318",0,6,5,"3",78,4,"message","sms","message",1,5.56001091,"1",NA,NA,NA,NA,NA,NA,NA,NA,0.10801393728223,"2"
"319",0,5,6,"3",79,4,"brand","ambassador","student",0,22.58793712,"0",NA,0.0037037037037037,NA,0.0037037037037037,49,114,35.6043956043956,4.13068323288172,0.131868131868132,"2"
"320",0,6,5,"3",80,4,"software","hardware","hard",0,7.96764183,"1",0.106896551724138,0.127586206896552,NA,NA,1,NA,1,3.83465956910364,0.127586206896552,"2"
"321",0,5,6,"3",81,5,"system","systematic","system",1,12.03357983,"0",0.0177935943060498,0.040590405904059,0.0177935943060498,0.040590405904059,4,4,2.77592829705506,2.78319583597873,0.112676056338028,"2"
"322",0,6,5,"3",82,5,"man","manly","man",1,15.37983704,"0",NA,0.0354609929078014,NA,0.0354609929078014,81,4,5.58225255972696,3.60780448760138,0.197952218430034,"3"
"323",0,5,6,"3",83,5,"police","thief","steal",0,17.95167589,"2",NA,0.00694444444444444,0.13588850174216,0.131944444444444,260,1,37.7018181818182,NA,0.261818181818182,"4"
"324",0,6,5,"3",84,5,"way","highway","high",0,10.61652112,"2",0.0034965034965035,NA,NA,NA,NA,NA,NA,4.25182898047288,0.139455782312925,"2"
"325",0,5,6,"3",85,5,"money","cash","money",1,9.21755695,"2",0.129251700680272,0.291095890410959,0.129251700680272,0.291095890410959,1,1,1,4.8594485848753,0.291095890410959,"4"
"326",0,6,5,"3",86,5,"language","english","language",1,7.12954712,"2",0.0942760942760943,0.26027397260274,0.0942760942760943,0.26027397260274,1,1,1,4.86909609573027,0.26027397260274,"4"
"327",0,5,6,"3",87,5,"life","lifetime","age",0,3.36303496,"0",NA,0.0212765957446809,NA,0.0531914893617021,87,3,5.66666666666667,4.2603170906984,0.120567375886525,"2"
"328",0,6,5,"3",88,5,"price","cost","price",1,3.26893616,"2",0.217993079584775,0.194444444444444,0.217993079584775,0.194444444444444,1,1,1,4.73930227309422,0.194444444444444,"3"
"329",0,5,6,"3",89,5,"part","partner","couple",0,11.41274405,"0",0.00340136054421769,NA,0.0102040816326531,0.0139372822299652,NA,16,NA,4.87582594134278,0.278388278388278,"4"
"330",0,6,5,"3",90,5,"day","friday","week",0,12.24674511,"0",0.00673400673400673,0.0278745644599303,0.00346020761245675,0.024390243902439,47,10,6.70192307692308,4.67744041574277,0.186813186813187,"3"
"331",0,5,6,"3",91,5,"case","case study","case",1,3.78435993,"0",NA,NA,NA,NA,NA,NA,NA,NA,0.111888111888112,"2"
"332",0,6,5,"3",92,5,"house","home","house",1,8.07807899,"0",0.257627118644068,0.163879598662207,0.257627118644068,0.163879598662207,12,1,1.43336529242569,5.88834327048646,0.23489932885906,"4"
"333",0,5,6,"3",93,5,"mother","mom","mother",1,10.37191606,"2",0.063758389261745,0.106761565836299,0.063758389261745,0.106761565836299,8,2,2.01513944223108,5.63328845189752,0.215139442231076,"3"
"334",0,6,5,"3",94,5,"love","lovely","love",1,6.92302322,"0",0.00338983050847458,0.027972027972028,0.00338983050847458,0.027972027972028,195,5,10.75,4.97793391414038,0.300699300699301,"4"
"335",0,5,6,"3",95,5,"country","india","country",1,12.75297189,"2",NA,0.0824742268041237,NA,0.0824742268041237,12,1,2.6284965034965,3.15515700226492,0.216783216783217,"3"
"336",0,6,5,"3",96,5,"nature","natural","nature",1,5.04125595,"0",0.0268456375838926,0.0627177700348432,0.0268456375838926,0.0627177700348432,5,1,2.78481735159817,4.6264889090277,0.174657534246575,"3"
"337",0,5,6,"3",97,5,"time","clock","time",1,18.19882083,"2",0.141379310344828,0.261744966442953,0.141379310344828,0.261744966442953,1,1,1,4.76765055517578,0.261744966442953,"4"
"338",0,6,5,"3",98,5,"work","job","office",0,11.41441107,"0",0.0588235294117647,0.209621993127148,0.0240549828178694,NA,3,NA,1.17045523797916,5.61537498824247,0.245353159851301,"4"
"339",0,5,6,"3",99,5,"government","govern","government",1,5.87027192,"0",0.00684931506849315,0.0676156583629893,0.00684931506849315,0.0676156583629893,18,2,3.60842828721288,3.09117469159804,0.243986254295533,"4"
"340",0,6,5,"3",100,5,"right","righteousness","right",1,13.29357696,"2",NA,0.00746268656716418,NA,0.00746268656716418,152,35,33.958904109589,3.24607665158378,0.253424657534247,"4"
"341",0,5,6,"3",101,6,"question","questionnaire","question",1,16.2137661,"1",NA,0.030188679245283,NA,0.030188679245283,39,6,8.83333333333333,2.9046179988642,0.266666666666667,"4"
"342",0,6,5,"3",102,6,"hand","handmade","hand",1,3.3696208,"0",NA,NA,NA,NA,NA,NA,NA,2.96393200008018,0.270833333333333,"4"
"343",0,5,6,"3",103,6,"event","charity","donation",0,24.56961489,"1",NA,0.00348432055749129,0.16551724137931,0.0313588850174216,259,6,39.3718411552347,4.21714623364411,0.137184115523466,"2"
"344",0,6,5,"3",104,6,"business","analytics","analysis",0,24.46799111,"0",NA,NA,NA,NA,NA,NA,NA,NA,0.160714285714286,"2"
"345",0,5,6,"3",105,6,"book","read","reading",0,16.53042912,"0",0.178451178451178,0.178947368421053,0.00340136054421769,0.00350877192982456,10,98,1.59389529007479,5.38184516615161,0.285223367697594,"4"
"346",0,6,5,"3",106,6,"information","data","science",0,10.22499609,"1",0.0896551724137931,0.112627986348123,0.00338983050847458,0.0204778156996587,2,8,1.01192067736185,4.408109729725,0.113970588235294,"2"
"347",0,5,6,"3",107,6,"health","healthy","health",1,7.58662796,"0",0.0103092783505155,0.00699300699300699,0.0103092783505155,0.00699300699300699,197,32,33.5871886120996,4.39323749269979,0.234875444839858,"4"
"348",0,6,5,"3",108,6,"body","figure","diagram",0,12.93101215,"0",0.00338983050847458,0.0448275862068966,0.0144404332129964,0.0172413793103448,27,10,4.53846153846154,5.11131227050658,0.203448275862069,"3"
"349",0,5,6,"3",109,6,"food","eat","food",1,4.66406608,"0",0.133561643835616,0.175862068965517,0.133561643835616,0.175862068965517,31,1,1.68997668997669,5.40063586626649,0.297202797202797,"4"
"350",0,6,5,"3",110,6,"problem","problematic","problem",1,9.48187804,"1",0.00348432055749129,0.0297397769516729,0.00348432055749129,0.0297397769516729,33,4,7.84187279151943,2.98203022217297,0.23321554770318,"4"
"351",0,5,6,"3",111,6,"power","battery","charge",0,16.89336586,"2",NA,0.0887372013651877,0.0336700336700337,0.0784982935153584,10,3,1.65492200107585,4.09392340002619,0.146853146853147,"2"
"352",0,6,5,"3",112,6,"design","algorithm","code",0,14.82214189,"0",NA,NA,NA,0.003584229390681,NA,47,NA,2.73899217348668,0.135416666666667,"2"
"353",0,5,6,"3",113,6,"leader","leadership","leader",1,6.96365905,"1",0.0107913669064748,0.0320284697508897,0.0107913669064748,0.0320284697508897,33,3,5.63408521303258,3.6897741508165,0.180451127819549,"3"
"354",0,6,5,"3",114,6,"thing","item","food",0,22.16129208,"1",0.0916030534351145,0.193430656934307,NA,NA,1,NA,1,4.09048478758973,0.193430656934307,"3"
"355",0,5,6,"3",115,6,"team","teammate","team",1,7.128299,"0",NA,NA,NA,NA,NA,NA,NA,2.96393200008018,0.136029411764706,"2"
"356",0,6,5,"3",116,6,"week","days","month",0,21.95942283,"2",0.0380622837370242,0.0631578947368421,NA,0.00701754385964912,1,20,1,5.48476382103466,0.0631578947368421,"1"
"357",0,5,6,"3",117,6,"experience","experiment","research",0,11.30832505,"1",NA,0.00346020761245675,0.0068259385665529,0.0207612456747405,204,10,16.9377289377289,4.20933965169701,0.0586080586080586,"1"
"358",0,6,5,"3",118,6,"student","school","college",0,15.90025496,"1",0.105442176870748,0.013745704467354,0.0976430976430976,0.0274914089347079,47,8,17.9383561643836,5.52202752101351,0.246575342465753,"4"
"359",0,5,6,"3",119,6,"project","meeting","meet",0,19.76793599,"0",NA,NA,0.0105263157894737,0.00714285714285714,NA,32,NA,5.12133089186464,0.0392857142857143,"1"
"360",0,6,5,"3",120,6,"page","paging","page",1,16.84342098,"0",0.0034965034965035,NA,0.0034965034965035,NA,NA,NA,NA,3.3130234412144,0.0446735395189003,"1"
"361",0,7,8,"4",1,1,"food","nourishment","food",1,14.74359608,"0",0.0171232876712329,0.297202797202797,0.0171232876712329,0.297202797202797,1,1,1,3.09117469159804,0.297202797202797,"4"
"362",0,8,7,"4",2,1,"hand","paw","foot",0,18.93116593,"0",NA,0.0294117647058824,NA,0.0808823529411765,43,3,9.20833333333333,3.49595412480038,0.270833333333333,"4"
"363",0,7,8,"4",3,1,"power","force","make",0,31.14948416,"2",0.0271186440677966,0.034965034965035,0.0174216027874564,0.0384615384615385,35,3,4.2,4.84873941119991,0.146853146853147,"2"
"364",0,8,7,"4",4,1,"week","seven","number",0,34.24720597,"2",0.0726643598615917,0.0140350877192982,0.0069204152249135,0.0912280701754386,15,2,4.5,5.0183983583067,0.0631578947368421,"1"
"365",0,7,8,"4",5,1,"leader","commander","captain",0,32.44445682,"1",0.00359712230215827,0.0763888888888889,0.00338983050847458,0.0347222222222222,8,9,2.36226930963773,4.56783613210651,0.180451127819549,"3"
"366",0,8,7,"4",6,1,"business","enterprise","business",1,17.26817703,"0",0.0241379310344828,0.139705882352941,0.0241379310344828,0.139705882352941,2,1,1.15037593984962,3.90883448326536,0.160714285714286,"2"
"367",0,7,8,"4",7,1,"question","query","question",1,6.91453815,"1",0.0590277777777778,0.266666666666667,0.0590277777777778,0.266666666666667,1,1,1,2.76895539686412,0.266666666666667,"4"
"368",0,8,7,"4",8,1,"thing","object","thing",1,7.85886192,"1",0.145038167938931,0.188405797101449,0.145038167938931,0.188405797101449,2,1,1.02667040988209,4.41075989497024,0.193430656934307,"3"
"369",0,7,8,"4",9,1,"book","tome","book",1,5.56085992,"0",0.0235690235690236,NA,0.0235690235690236,NA,NA,NA,NA,NA,0.285223367697594,"4"
"370",0,8,7,"4",10,1,"problem","riddle","quiz",0,48.94896698,"1",NA,NA,NA,0.0103092783505155,NA,24,NA,3.65732212703536,0.23321554770318,"4"
"371",0,7,8,"4",11,1,"event","happening","occurrence",0,22.02538109,"1",0.0719424460431655,0.127413127413127,0.19672131147541,0.027027027027027,3,5,1.07668745213872,4.95638210439101,0.137184115523466,"2"
"372",0,8,7,"4",12,1,"design","blueprint","plan",0,16.52822089,"0",0.00343642611683849,0.0245614035087719,0.0307167235494881,0.0771929824561404,17,1,5.51339285714286,3.09801411612835,0.135416666666667,"2"
"373",0,7,8,"4",13,1,"team","squad","team",1,29.37807584,"0",NA,0.136029411764706,NA,0.136029411764706,1,1,1,4.33204076971917,0.136029411764706,"2"
"374",0,8,7,"4",14,1,"information","data","information",1,7.7539959,"1",0.0896551724137931,0.112627986348123,0.0896551724137931,0.112627986348123,2,1,1.01192067736185,4.408109729725,0.113970588235294,"2"
"375",0,7,8,"4",15,1,"project","assignment","task",0,5.46620107,"0",0.0173611111111111,0.0392857142857143,0.0069204152249135,0.103571428571429,1,2,1,4.25230491967876,0.0392857142857143,"1"
"376",0,8,7,"4",16,1,"student","pupil","eye",0,13.80627203,"1",0.0340136054421769,0.246575342465753,0.0101010101010101,0.208904109589041,1,2,1,3.49866001817631,0.246575342465753,"4"
"377",0,7,8,"4",17,1,"experience","event","happening",0,45.30798197,"1",0.021978021978022,NA,0.127413127413127,0.0719424460431655,NA,2,NA,4.42087920203242,0.0586080586080586,"1"
"378",0,8,7,"4",18,1,"page","sheet","paper",0,17.31349802,"0",0.0104895104895105,0.00342465753424658,0.00675675675675676,0.212328767123288,121,1,13.0446735395189,4.06488883550872,0.0446735395189003,"1"
"379",0,7,8,"4",19,1,"health","wellness","health",1,11.72062302,"0",0.0274914089347079,0.234875444839858,0.0274914089347079,0.234875444839858,1,1,1,NA,0.234875444839858,"4"
"380",0,8,7,"4",20,1,"body","corpse","body",1,9.59476709,"0",0.0203389830508475,0.174061433447099,0.0203389830508475,0.174061433447099,4,2,1.16883029073698,4.00448384377167,0.203448275862069,"3"
"381",0,7,8,"4",21,2,"situation","circumstance","situation",1,19.18079805,"0",0.026615969581749,0.145098039215686,0.026615969581749,0.145098039215686,1,1,1,3.31714000740923,0.145098039215686,"2"
"382",0,8,7,"4",22,2,"difference","distinction","merit",0,4.93580389,"0",0.0109489051094891,0.060377358490566,0.00738007380073801,0.0226415094339623,3,7,2.13932291666667,3.47081108943763,0.129166666666667,"2"
"383",0,7,8,"4",23,2,"chance","luck","fortune",0,4.30887699,"1",0.104166666666667,0.0830449826989619,0.0798611111111111,0.0761245674740484,7,3,1.90801056338028,5.1862055960007,0.158450704225352,"2"
"384",0,8,7,"4",24,2,"treatment","cure","remedy",0,8.38344502,"0",0.0425531914893617,0.0069204152249135,0.169550173010381,0.013840830449827,32,12,4.20363636363636,4.31877577010349,0.0290909090909091,"1"
"385",0,7,8,"4",25,2,"sense","feel","sense",1,7.75340581,"1",0.0921501706484642,0.0740740740740741,0.0921501706484642,0.0740740740740741,3,3,2.22352941176471,5.79684838222857,0.164705882352941,"3"
"386",0,8,7,"4",26,2,"software","program","schedule",0,19.35679507,"1",0.0620689655172414,0.00701754385964912,NA,0.0105263157894737,36,18,18.1810344827586,4.62929340343512,0.127586206896552,"2"
"387",0,7,8,"4",27,2,"brand","label","brand",1,24.05864596,"0",0.0308219178082192,0.03886925795053,0.0308219178082192,0.03886925795053,3,4,3.39260739260739,3.83837680562259,0.131868131868132,"2"
"388",0,8,7,"4",28,2,"picture","image","picture",1,4.33239603,"1",0.0538720538720539,0.209059233449477,0.0538720538720539,0.209059233449477,3,1,1.17945205479452,4.35441612637262,0.246575342465753,"4"
"389",0,7,8,"4",29,2,"payment","remuneration","pay",0,5.83521795,"0",NA,NA,NA,NA,NA,NA,NA,2.37101538819208,0.0513698630136986,"1"
"390",0,8,7,"4",30,2,"review","revise","review",1,14.02799487,"0",0.0109489051094891,0.0274914089347079,0.0109489051094891,0.0274914089347079,6,7,3.15650826446281,2.9450466559198,0.0867768595041322,"1"
"391",0,7,8,"4",31,2,"skin","dermus","skin",1,9.63177681,"0",NA,NA,NA,NA,NA,NA,NA,NA,0.23469387755102,"4"
"392",0,8,7,"4",32,2,"director","producer","director",1,15.0662539,"0",0.0205479452054795,0.0620689655172414,0.0205479452054795,0.0620689655172414,1,2,1,4.09597357447981,0.0620689655172414,"1"
"393",0,7,8,"4",33,2,"vehicle","car","automobile",0,5.87527585,"1",0.292517006802721,0.0513698630136986,0.296551724137931,0.0410958904109589,3,5,1.08524970963995,5.68342196565441,0.0557491289198606,"1"
"394",0,8,7,"4",34,2,"death","perishing","expiring",0,33.24487591,"0",NA,NA,NA,NA,NA,NA,NA,2.29183414214446,0.286713286713287,"4"
"395",0,7,8,"4",35,2,"weight","mass","weight",1,2.10878301,"0",0.0750853242320819,0.13745704467354,0.0750853242320819,0.13745704467354,10,1,1.97464285714286,4.23681005055651,0.271428571428571,"4"
"396",0,8,7,"4",36,2,"message","text","writing",0,19.14387202,"1",0.114982578397213,0.0915492957746479,0.00677966101694915,0.0422535211267606,2,5,1.1798445456982,NA,0.10801393728223,"2"
"397",0,7,8,"4",37,2,"environment","nature","life",0,20.65720201,"1",0.0547945205479452,0.00671140939597315,NA,0.00335570469798658,72,83,17.7754385964912,4.65431661689563,0.119298245614035,"2"
"398",0,8,7,"4",38,2,"table","spreadsheet","data",0,39.45157313,"1",NA,0.0143884892086331,0.0068259385665529,0.0863309352517986,87,2,12.1080139372822,2.46792540120014,0.174216027874564,"3"
"399",0,7,8,"4",39,2,"bank","savings","funds",0,34.70398903,"1",0.00673400673400673,0.197183098591549,0.0141843971631206,0.00352112676056338,3,51,1.29603174603175,3.87729487165296,0.255555555555556,"4"
"400",0,8,7,"4",40,2,"couple","pair","duo",0,5.56032515,"1",0.115646258503401,0.129692832764505,0.128919860627178,0.0443686006825939,1,6,1,4.5708162590099,0.129692832764505,"2"
"401",0,7,8,"4",41,3,"practice","preparation","planning",0,17.47051001,"0",NA,0.00350877192982456,0.0109489051094891,0.0385964912280702,144,4,68.0449826989619,3.60780448760138,0.238754325259516,"4"
"402",0,8,7,"4",42,3,"need","require","need",1,3.79012084,"2",0.041958041958042,0.220216606498195,0.041958041958042,0.220216606498195,2,1,1.03930962826137,4.02663397173331,0.22887323943662,"3"
"403",0,7,8,"4",43,3,"control","manipulate","control",1,5.97667193,"1",0.00350877192982456,0.0247349823321555,0.00350877192982456,0.0247349823321555,28,6,8.69283276450512,3.54225414445335,0.215017064846416,"3"
"404",0,8,7,"4",44,3,"website","domain","section",0,24.88655806,"1",NA,0.0821428571428571,NA,0.00357142857142857,1,102,1,3.41568578311155,0.0821428571428571,"1"
"405",0,7,8,"4",45,3,"effect","influence","persuade",0,14.91940403,"2",0.021505376344086,0.010989010989011,0.0155038759689922,0.0293040293040293,9,3,18.1340579710145,4.16978109377365,0.199275362318841,"3"
"406",0,8,7,"4",46,3,"activity","event","happening",0,18.56812978,"0",0.00727272727272727,0.00719424460431655,0.127413127413127,0.0719424460431655,25,2,7.16494845360825,4.42087920203242,0.0515463917525773,"1"
"407",0,7,8,"4",47,3,"series","serial","series",1,10.77563,"0",0.010752688172043,0.0451388888888889,0.010752688172043,0.0451388888888889,2,3,1.77230769230769,4.05376198056499,0.08,"1"
"408",0,8,7,"4",48,3,"space","area","zone",0,9.31797194,"0",0.0371621621621622,0.0915492957746479,0.16,0.00352112676056338,30,146,3.22812582606397,4.87412482486345,0.29553264604811,"4"
"409",0,7,8,"4",49,3,"industry","labor","work",0,15.16982007,"0",0.00677966101694915,NA,0.0346020761245675,0.231034482758621,NA,1,NA,4.08562452683528,0.0505050505050505,"1"
"410",0,8,7,"4",50,3,"feature","aspect","quality",0,23.94447184,"0",0.0105263157894737,0.0126050420168067,0.00354609929078014,0.00420168067226891,4,94,3.59349593495935,3.58849933240599,0.0452961672473868,"1"
"411",0,7,8,"4",51,3,"opportunity","chance","luck",0,5.24816298,"2",0.158450704225352,0.0833333333333333,0.0830449826989619,0.104166666666667,1,1,1,5.38188046460182,0.0833333333333333,"1"
"412",0,8,7,"4",52,3,"million","billion","million",1,11.81308198,"1",0.09375,0.137931034482759,0.09375,0.137931034482759,1,1,1,4.04694640853953,0.137931034482759,"2"
"413",0,7,8,"4",53,3,"section","zone","space",0,7.66858888,"0",NA,0.0109090909090909,NA,0.00727272727272727,22,31,6.35644768856448,NA,0.0693430656934307,"1"
"414",0,8,7,"4",54,3,"technology","engineering","industry",0,17.63754582,"1",0.0136054421768707,0.0106382978723404,NA,NA,54,NA,7.25735294117647,3.81558060895602,0.0772058823529412,"1"
"415",0,7,8,"4",55,3,"care","protect","defend",0,16.25615978,"1",0.00689655172413793,0.0341296928327645,0.115789473684211,0.0546075085324232,12,2,3.21095890410959,4.84620214313455,0.10958904109589,"2"
"416",0,8,7,"4",56,3,"office","workplace","business",0,27.13921785,"0",0.0103092783505155,0.127147766323024,NA,0.0103092783505155,1,12,1,NA,0.127147766323024,"2"
"417",0,7,8,"4",57,3,"head","top","best",0,17.92925382,"0",0.0456140350877193,0.0103448275862069,0.0410958904109589,0.0275862068965517,161,5,19.9887005649718,NA,0.206779661016949,"3"
"418",0,8,7,"4",58,3,"rate","ratio","proportion",0,7.130862,"0",0.00343642611683849,0.0109489051094891,0.0611510791366906,0.062043795620438,9,3,4.45528455284553,3.50931808635837,0.0487804878048781,"1"
"419",0,7,8,"4",59,3,"back","spine","backbone",0,6.91763902,"2",0.0477815699658703,0.168965517241379,0.206896551724138,0.0620689655172414,2,2,1.42366224840452,3.76018147255662,0.240549828178694,"4"
"420",0,8,7,"4",60,3,"center","middle","center",1,23.52839804,"1",0.214788732394366,0.125435540069686,0.214788732394366,0.125435540069686,3,1,1.32410611303345,4.94984553880157,0.166089965397924,"3"
"421",0,7,8,"4",61,4,"time","hours","minutes",0,28.330369,"2",0.0103448275862069,0.213286713286713,0.15034965034965,0.13986013986014,6,2,1.22719771151942,5.33164469629281,0.261744966442953,"4"
"422",0,8,7,"4",62,4,"love","romance","relationship",0,7.336308,"0",0.0101694915254237,0.26962457337884,0.0069204152249135,0.0170648464163823,3,9,1.11525183677082,4.19110732946206,0.300699300699301,"4"
"423",0,7,8,"4",63,4,"country","nation","country",1,4.31139994,"2",0.0616438356164384,0.216783216783217,0.0616438356164384,0.216783216783217,1,1,1,4.31136582667571,0.216783216783217,"3"
"424",0,8,7,"4",64,4,"nature","environment","nature",1,9.42489314,"0",0.00671140939597315,0.0547945205479452,0.00671140939597315,0.0547945205479452,8,3,3.1875,4.10674732341953,0.174657534246575,"3"
"425",0,7,8,"4",65,4,"system","device","gadget",0,19.14141607,"0",NA,NA,0.0174825174825175,0.055363321799308,NA,3,NA,4.25891387628896,0.112676056338028,"2"
"426",0,8,7,"4",66,4,"day","monday","weekday",0,34.18019295,"0",0.00336700336700337,0.0274914089347079,0.130742049469965,0.0274914089347079,49,11,6.79532967032967,4.52202752101351,0.186813186813187,"3"
"427",0,7,8,"4",67,4,"police","constabulary","police",1,4.14914703,"2",NA,NA,NA,NA,NA,NA,NA,2.33322682730268,0.261818181818182,"4"
"428",0,8,7,"4",68,4,"right","left","right",1,10.6292069,"2",0.197278911564626,0.253424657534247,0.197278911564626,0.253424657534247,1,1,1,5.68467173481012,0.253424657534247,"4"
"429",0,7,8,"4",69,4,"government","administration","management",0,16.23401213,"0",0.00342465753424658,0.0610169491525424,0.0107142857142857,0.0203389830508475,23,8,3.99866361206567,3.88066586773867,0.243986254295533,"4"
"430",0,8,7,"4",70,4,"way","means","methods",0,13.27330899,"2",0.0034965034965035,0.0196078431372549,NA,0.0156862745098039,34,14,7.11224489795918,5.3386023618053,0.139455782312925,"2"
"431",0,7,8,"4",71,4,"case","attach","case",1,16.84339309,"0",NA,NA,NA,NA,NA,NA,NA,NA,0.111888111888112,"2"
"432",0,8,7,"4",72,4,"man","bloke","man",1,5.35592008,"0",0.00341296928327645,0.137323943661972,0.00341296928327645,0.137323943661972,8,2,1.44149820600333,3.6702320430926,0.197952218430034,"3"
"433",0,7,8,"4",73,4,"part","piece","part",1,6.70856094,"0",0.115646258503401,0.0896551724137931,0.115646258503401,0.0896551724137931,7,2,3.10510002817695,5.09460786743644,0.278388278388278,"4"
"434",0,8,7,"4",74,4,"house","home","house",1,6.50197101,"0",0.257627118644068,0.163879598662207,0.257627118644068,0.163879598662207,12,1,1.43336529242569,5.88834327048646,0.23489932885906,"4"
"435",0,7,8,"4",75,4,"mother","maternal","mother",1,5.77198696,"2",0.00335570469798658,0.161290322580645,0.00335570469798658,0.161290322580645,3,1,1.33386454183267,3.17264773442525,0.215139442231076,"3"
"436",0,8,7,"4",76,4,"work","job","work",1,3.99423504,"0",0.0588235294117647,0.209621993127148,0.0588235294117647,0.209621993127148,3,1,1.17045523797916,5.61537498824247,0.245353159851301,"4"
"437",0,7,8,"4",77,4,"money","cash","money",1,1.59327006,"2",0.129251700680272,0.291095890410959,0.129251700680272,0.291095890410959,1,1,1,4.8594485848753,0.291095890410959,"4"
"438",0,8,7,"4",78,4,"language","dialect","accent",0,8.79883099,"2",0.0134680134680135,0.212765957446809,0.048951048951049,0.0957446808510638,4,2,1.22328767123288,3.13068323288172,0.26027397260274,"4"
"439",0,7,8,"4",79,4,"life","vim","vigor",0,9.7425549,"0",NA,NA,0.0716981132075472,NA,NA,NA,NA,NA,0.120567375886525,"2"
"440",0,8,7,"4",80,4,"price","cost","expense",0,2.11320305,"2",0.217993079584775,0.194444444444444,0.182758620689655,0.0520833333333333,1,3,1,4.73930227309422,0.194444444444444,"3"
"441",0,7,8,"4",81,5,"network","contacts","touches",0,19.87230802,"1",NA,0.0277777777777778,NA,0.0104166666666667,9,17,2.4406779661017,3.89821550725507,0.0677966101694915,"1"
"442",0,8,7,"4",82,5,"location","latitude","height",0,24.25788498,"1",NA,NA,NA,NA,NA,NA,NA,3.20564799452818,0.123188405797101,"2"
"443",0,7,8,"4",83,5,"patient","considered","thought",0,42.84984303,"1",NA,NA,0.00363636363636364,NA,NA,NA,NA,4.36481888677239,0.0571428571428571,"1"
"444",0,8,7,"4",84,5,"light","illumination","light",1,13.18730378,"1",0.00333333333333333,0.228682170542636,0.00333333333333333,0.228682170542636,7,1,1.30391371340524,2.83590218649474,0.298181818181818,"4"
"445",0,7,8,"4",85,5,"staff","rod","bar",0,3.99451494,"0",0.0856164383561644,0.0108695652173913,0.0268456375838926,0.0072463768115942,9,22,8.54285714285714,4.03061470062883,0.0928571428571429,"1"
"446",0,8,7,"4",86,5,"role","character","person",0,19.4528501,"1",0.024390243902439,0.0205479452054795,0.00353356890459364,0.0582191780821918,2,2,2.15192743764172,4.58120009366449,0.0442176870748299,"1"
"447",0,7,8,"4",87,5,"method","application","program",0,8.38351798,"1",0.00373134328358209,NA,0.00701754385964912,0.0310344827586207,NA,5,NA,4.00025504227917,0.0833333333333333,"1"
"448",0,8,7,"4",88,5,"oil","grease","oil",1,14.7532959,"1",0.0204081632653061,0.125874125874126,0.0204081632653061,0.125874125874126,8,1,1.70238095238095,3.84206249519955,0.214285714285714,"3"
"449",0,7,8,"4",89,5,"phone","cell","unit",0,5.77112913,"1",0.0962199312714777,0.176470588235294,NA,0.00346020761245675,5,97,1.40702947845805,4.73478401172232,0.248299319727891,"4"
"450",0,8,7,"4",90,5,"store","shop","enterprise",0,4.93460298,"0",0.123239436619718,0.169611307420495,NA,NA,5,NA,1.24802311435523,4.72831483715396,0.211678832116788,"3"
"451",0,7,8,"4",91,5,"rule","law","rule",1,17.57402706,"0",0.143344709897611,0.0821917808219178,0.143344709897611,0.0821917808219178,7,2,2.20818505338078,5.06510849048191,0.181494661921708,"3"
"452",0,8,7,"4",92,5,"road","street","road",1,17.88840914,"1",0.0973154362416107,0.166101694915254,0.0973154362416107,0.166101694915254,5,1,1.31628995684295,5.17024102972546,0.218637992831541,"3"
"453",0,7,8,"4",93,5,"article","column","row",0,21.41154814,"1",0.00689655172413793,0.0105633802816901,0.0612244897959184,0.119718309859155,22,1,5.46153846153846,4.04002216915066,0.0576923076923077,"1"
"454",0,8,7,"4",94,5,"example","eg","example",1,9.66328001,"0",0.0239043824701195,NA,0.0239043824701195,NA,NA,NA,NA,1.59286413780844,0.08,"1"
"455",0,7,8,"4",95,5,"look","see","view",0,1.38095713,"0",0.221476510067114,0.0983050847457627,0.176678445229682,0.0610169491525424,13,3,2.3182031433263,6.40709175020568,0.227891156462585,"3"
"456",0,8,7,"4",96,5,"record","annal","journal",0,27.91645694,"1",NA,NA,NA,NA,NA,NA,NA,1.59286413780844,0.199312714776632,"3"
"457",0,7,8,"4",97,5,"park","playground","park",1,33.34849691,"0",0.0338983050847458,0.0238907849829352,0.0338983050847458,0.0238907849829352,21,8,9.7412987012987,3.70847464948274,0.232727272727273,"3"
"458",0,8,7,"4",98,5,"heart","core","center",0,27.18348694,"0",0.0100671140939597,0.0240549828178694,0.0105633802816901,0.140893470790378,53,2,12.7529880478088,3.99253785928948,0.306772908366534,"4"
"459",0,7,8,"4",99,5,"news","headlines","titles",0,11.92994285,"0",NA,NA,NA,NA,NA,NA,NA,3.62427260206007,0.159863945578231,"2"
"460",0,8,7,"4",100,5,"department","section","area",0,23.94418192,"0",0.0693430656934307,0.00347222222222222,NA,0.0416666666666667,49,3,6.37638376383764,4.43640834975408,0.022140221402214,"1"
"461",0,7,8,"4",101,6,"character","role","character",1,11.87320495,"0",0.0205479452054795,0.024390243902439,0.0205479452054795,0.024390243902439,11,9,5.21305841924399,4.2603170906984,0.127147766323024,"2"
"462",0,8,7,"4",102,6,"email","webmail","email",1,8.85920906,"0",NA,NA,NA,NA,NA,NA,NA,NA,0.230483271375465,"3"
"463",0,7,8,"4",103,6,"benefit","affordance","option",0,12.76971507,"0",NA,NA,NA,NA,NA,NA,NA,NA,0.0902527075812274,"1"
"464",0,8,7,"4",104,6,"age","epoch","era",0,5.14248204,"1",0.0139372822299652,0.0598290598290598,0.0391459074733096,0.136752136752137,14,2,2.64542651593011,2.1949241291364,0.158273381294964,"2"
"465",0,7,8,"4",105,6,"term","name","refer",0,33.03393078,"2",0.00684931506849315,0.0034965034965035,0.00374531835205993,NA,47,NA,20.639175257732,5.80685975417653,0.0721649484536082,"1"
"466",0,8,7,"4",106,6,"position","coordinates","location",0,30.00110102,"0",NA,NA,NA,NA,NA,NA,NA,3.83465956910364,0.101818181818182,"2"
"467",0,7,8,"4",107,6,"risk","gamble","bet",0,8.44916296,"0",0.0397111913357401,0.096989966555184,0.145390070921986,0.0869565217391304,1,3,1,3.95175034221431,0.096989966555184,"2"
"468",0,8,7,"4",108,6,"education","teaching","instructing",0,5.35290909,"1",0.0101010101010101,0.0274914089347079,NA,0.013745704467354,22,16,3.38663793103448,4.29658529773546,0.0931034482758621,"2"
"469",0,7,8,"4",109,6,"photo","snapshot","photo",1,14.89508295,"1",0.020979020979021,0.177304964539007,0.020979020979021,0.177304964539007,1,1,1,3.02422790196743,0.177304964539007,"3"
"470",0,8,7,"4",110,6,"date","day","night",0,15.27765679,"1",0.0372881355932203,0.00673400673400673,0.10472972972973,0.191919191919192,91,1,14.5384615384615,5.90349373479625,0.0979020979020979,"2"
"471",0,7,8,"4",111,6,"skill","expertise","knowledge",0,17.94324398,"1",0.00704225352112676,0.0586080586080586,0.00342465753424658,0.131868131868132,9,1,2.1328125,3.60146430957036,0.125,"2"
"472",0,8,7,"4",112,6,"material","stuff","things",0,5.29610801,"2",0.0425531914893617,0.0212765957446809,0.194852941176471,0.159574468085106,16,1,3.75347222222222,5.48645947162832,0.0798611111111111,"1"
"473",0,7,8,"4",113,6,"source","target","goal",0,4.1022532,"1",NA,NA,0.013840830449827,0.0758620689655172,NA,3,NA,4.57896376286357,0.05,"1"
"474",0,8,7,"4",114,6,"top","best","superlative",0,12.46885705,"2",0.0275862068965517,0.0410958904109589,0.133004926108374,0.0308219178082192,38,5,5.69708994708995,5.60620704215379,0.234126984126984,"4"
"475",0,7,8,"4",115,6,"eye","iris","pupil",0,8.0567081,"0",0.0202020202020202,0.261484098939929,0.0376712328767123,0.0565371024734982,2,4,1.27973498790619,3.72480343301887,0.334630350194553,"4"
"476",0,8,7,"4",116,6,"kind","giving","imparting",0,20.80879807,"0",0.0103092783505155,0.0204778156996587,NA,NA,87,NA,8.48522458628842,5.04110655044288,0.173758865248227,"3"
"477",0,7,8,"4",117,6,"goal","mission","assignment",0,20.50182104,"1",NA,0.0484429065743945,0.0107142857142857,0.00346020761245675,14,45,3.67310625317743,4.67222630220149,0.177935943060498,"3"
"478",0,8,7,"4",118,6,"device","gadget","device",1,3.47037101,"0",0.055363321799308,0.0174825174825175,0.055363321799308,0.0174825174825175,7,10,3.92346570397112,3.38874415515252,0.0685920577617329,"1"
"479",0,7,8,"4",119,6,"court","jury","judge",0,7.23211694,"0",0.0338983050847458,0.112627986348123,0.0912162162162162,0.150170648464164,10,1,1.47979797979798,4.63068888839678,0.166666666666667,"3"
"480",0,8,7,"4",120,6,"board","directors","leaders",0,18.62156296,"0",0.0103448275862069,NA,NA,NA,NA,NA,NA,3.7631258532034,0.187074829931973,"3"
"481",0,10,9,"5",1,1,"chance","luck","cloverleaf",0,18.54015112,"1",0.104166666666667,0.0830449826989619,NA,NA,7,NA,1.90801056338028,5.1862055960007,0.158450704225352,"2"
"482",0,9,10,"5",2,1,"death","deceased","dead",0,23.39461303,"0",0.0138888888888889,0.0180505415162455,0.0409556313993174,0.296028880866426,211,1,15.8839160839161,3.79969001384029,0.286713286713287,"4"
"483",0,10,9,"5",3,1,"bank","money","currency",0,34.39019799,"1",0.228956228956229,0.0170068027210884,0.275510204081633,0.0340136054421769,66,6,15.0266666666667,5.80611619000484,0.255555555555556,"4"
"484",0,9,10,"5",4,1,"difference",NA,"quotient",0,44.31371093,"0",NA,NA,NA,NA,NA,NA,NA,NA,0.129166666666667,"2"
"485",0,10,9,"5",5,1,"skin","largest organ","intestines",0,41.62871599,"0",0.00354609929078014,NA,NA,NA,NA,NA,NA,NA,0.23469387755102,"4"
"486",0,9,10,"5",6,1,"message","text","words",0,37.28113198,"1",0.114982578397213,0.0915492957746479,0.00342465753424658,0.073943661971831,2,3,1.1798445456982,NA,0.10801393728223,"2"
"487",0,10,9,"5",7,1,"sense","common","room",0,72.43875003,"1",0.0853242320819113,0.0443686006825939,NA,0.0068259385665529,6,41,3.71221719457014,4.64900639986749,0.164705882352941,"3"
"488",0,9,10,"5",8,1,"treatment","medical","doctor",0,34.25612903,"0",0.0638297872340425,0.00675675675675676,0.0341296928327645,0.206081081081081,38,1,4.30545454545455,4.73509712960315,0.0290909090909091,"1"
"489",0,10,9,"5",9,1,"brand","business","corruption",0,56.97437596,"0",0.0102739726027397,NA,0.00696864111498258,0.00344827586206897,NA,77,NA,5.50593587811769,0.131868131868132,"2"
"490",0,9,10,"5",10,1,"table","dinner","supper",0,33.4285171,"1",0.0439189189189189,0.0266666666666667,0.248275862068966,0.106666666666667,43,2,6.53310104529617,5.30622865841799,0.174216027874564,"3"
"491",0,10,9,"5",11,1,"vehicle","car","automobile",0,11.30654788,"1",0.292517006802721,0.0513698630136986,0.296551724137931,0.0410958904109589,3,5,1.08524970963995,5.68342196565441,0.0557491289198606,"1"
"492",0,9,10,"5",12,1,"couple","dating","courting",0,20.81119704,"1",0.00340136054421769,0.0172413793103448,NA,0.00689655172413793,24,31,7.5221843003413,4.51972084675813,0.129692832764505,"2"
"493",0,10,9,"5",13,1,"payment","bill","payment",1,32.31872988,"0",0.0563380281690141,0.0341296928327645,0.0563380281690141,0.0341296928327645,7,7,1.50513698630137,5.07301486308172,0.0513698630136986,"1"
"494",0,9,10,"5",14,1,"review","systematic","structure",0,21.11135507,"0",0.00364963503649635,0.011070110701107,NA,NA,19,NA,7.83884297520661,2.78319583597873,0.0867768595041322,"1"
"495",0,10,9,"5",15,1,"environment","surroundings","perception",0,26.99265122,"1",0.0616438356164384,0.119298245614035,NA,NA,1,NA,1,3.32525789763141,0.119298245614035,"2"
"496",0,9,10,"5",16,1,"software","computer","technology",0,29.77111292,"1",0.203448275862069,0.00696864111498258,0.163265306122449,0.0313588850174216,37,7,18.3086206896552,4.77068910967312,0.127586206896552,"2"
"497",0,10,9,"5",17,1,"situation","circumstance","reasoning",0,27.84914398,"0",0.026615969581749,0.145098039215686,NA,NA,1,NA,1,3.31714000740923,0.145098039215686,"2"
"498",0,9,10,"5",18,1,"picture","instagram","social",0,26.28149009,"1",NA,NA,NA,NA,NA,NA,NA,NA,0.246575342465753,"4"
"499",0,10,9,"5",19,1,"weight","pounds","weight",1,17.28766203,"0",0.0443686006825939,0.271428571428571,0.0443686006825939,0.271428571428571,1,1,1,4.49486702915917,0.271428571428571,"4"
"500",0,9,10,"5",20,1,"director","spielberg","director",1,51.57832098,"0",0.00684931506849315,NA,0.00684931506849315,NA,NA,NA,NA,NA,0.0620689655172414,"1"
"501",0,10,9,"5",21,2,"life","living","alive",0,78.65012002,"0",0.0350877192982456,0.0602836879432624,0.124113475177305,0.0815602836879433,18,1,2,5.19405467042377,0.120567375886525,"2"
"502",0,9,10,"5",22,2,"way","direction","map",0,27.8823421,"2",0.0314685314685315,0.0586206896551724,0.013840830449827,0.0482758620689655,11,3,2.37895158063225,4.38138602503091,0.139455782312925,"2"
"503",0,10,9,"5",23,2,"case","brief ","short",0,45.17227983,"0",NA,NA,NA,NA,NA,NA,NA,NA,0.111888111888112,"2"
"504",0,9,10,"5",24,2,"man","boy","son",0,24.23189998,"0",0.0341296928327645,0.0584192439862543,0.0777027027027027,0.0240549828178694,40,9,3.38847620959647,5.72355163179047,0.197952218430034,"3"
"505",0,10,9,"5",25,2,"police","officer","police",1,17.0641849,"2",0.037037037037037,0.21602787456446,0.037037037037037,0.21602787456446,4,1,1.21196480938416,5.01331499691451,0.261818181818182,"4"
"506",0,9,10,"5",26,2,"language","spanish","language",1,39.49782801,"2",0.0336700336700337,0.143835616438356,0.0336700336700337,0.143835616438356,11,1,1.80952380952381,4.34529674706992,0.26027397260274,"4"
"507",0,10,9,"5",27,2,"system","structure","building",0,54.58634496,"0",0.00355871886120996,0.00348432055749129,0.0416666666666667,0.268292682926829,225,1,32.3380281690141,4.00783748577926,0.112676056338028,"2"
"508",0,9,10,"5",28,2,"work","job","career",0,29.33894515,"0",0.0588235294117647,0.209621993127148,0.229452054794521,0.0446735395189003,3,4,1.17045523797916,5.61537498824247,0.245353159851301,"4"
"509",0,10,9,"5",29,2,"mother","mom","mother",1,14.23128796,"2",0.063758389261745,0.106761565836299,0.063758389261745,0.106761565836299,8,2,2.01513944223108,5.63328845189752,0.215139442231076,"3"
"510",0,9,10,"5",30,2,"price","cost","price",1,23.31710482,"2",0.217993079584775,0.194444444444444,0.217993079584775,0.194444444444444,1,1,1,4.73930227309422,0.194444444444444,"3"
"511",0,10,9,"5",31,2,"money","currency","money",1,14.13644218,"2",0.0340136054421769,0.275510204081633,0.0340136054421769,0.275510204081633,4,1,1.05657026889904,3.56367574868096,0.291095890410959,"4"
"512",0,9,10,"5",32,2,"day","sunlight","bright",0,66.13081717,"0",0.00336700336700337,0.0471380471380471,NA,0.138047138047138,25,1,3.96310832025118,3.66658248815456,0.186813186813187,"3"
"513",0,10,9,"5",33,2,"part","piece","puzzle",0,21.47657394,"0",0.115646258503401,0.0896551724137931,0.0647482014388489,0.0241379310344828,7,10,3.10510002817695,5.09460786743644,0.278388278388278,"4"
"514",0,9,10,"5",34,2,"love","affection","love",1,16.17828393,"0",0.0169491525423729,0.28125,0.0169491525423729,0.28125,2,1,1.06915306915307,3.92731788895937,0.300699300699301,"4"
"515",0,10,9,"5",35,2,"government","politicians","politics",0,34.21227002,"0",0.00684931506849315,0.0565371024734982,0.0034965034965035,0.0106007067137809,31,20,4.31550687285223,3.73587893806254,0.243986254295533,"4"
"516",0,9,10,"5",36,2,"house","home","house",1,32.06029916,"0",0.257627118644068,0.163879598662207,0.257627118644068,0.163879598662207,12,1,1.43336529242569,5.88834327048646,0.23489932885906,"4"
"517",0,10,9,"5",37,2,"country","nation","country",1,18.31415701,"2",0.0616438356164384,0.216783216783217,0.0616438356164384,0.216783216783217,1,1,1,4.31136582667571,0.216783216783217,"3"
"518",0,9,10,"5",38,2,"nature","outdoors","nature",1,27.27742291,"0",0.0536912751677852,0.0433333333333333,0.0536912751677852,0.0433333333333333,14,4,4.03055848261328,3.32525789763141,0.174657534246575,"3"
"519",0,10,9,"5",39,2,"time","years","decade",0,24.75067496,"2",NA,0.158273381294964,0.139285714285714,0.00359712230215827,11,44,1.65375228798048,NA,0.261744966442953,"4"
"520",0,9,10,"5",40,2,"right","left","right",1,32.22740889,"2",0.197278911564626,0.253424657534247,0.197278911564626,0.253424657534247,1,1,1,5.68467173481012,0.253424657534247,"4"
"521",0,10,9,"5",41,3,"opportunity","chance","luck",0,20.63544798,"2",0.158450704225352,0.0833333333333333,0.0830449826989619,0.104166666666667,1,1,1,5.38188046460182,0.0833333333333333,"1"
"522",0,9,10,"5",42,3,"technology","microsoft","software",0,17.95858192,"1",NA,0.0103806228373702,0.0413793103448276,0.0380622837370242,61,7,7.4375,NA,0.0772058823529412,"1"
"523",0,10,9,"5",43,3,"industry","jobs","work",0,23.35336781,"0",0.0135593220338983,0.00343642611683849,NA,0.199312714776632,104,1,14.6969696969697,4.44074513525382,0.0505050505050505,"1"
"524",0,9,10,"5",44,3,"need","necessity","need",1,39.88875198,"2",0.0384615384615385,0.2,0.0384615384615385,0.2,3,1,1.1443661971831,3.46209585753942,0.22887323943662,"3"
"525",0,10,9,"5",45,3,"effect","outcome","resolution",0,29.69042087,"2",0.017921146953405,0.00381679389312977,0.00701754385964912,0.00763358778625954,34,25,52.2101449275362,3.59718551159108,0.199275362318841,"3"
"526",0,9,10,"5",46,3,"feature","characteristic","trait",0,12.87305808,"0",0.0210526315789474,0.0373134328358209,0.107692307692308,0.100746268656716,2,1,1.21393728222997,3.07716397715523,0.0452961672473868,"1"
"527",0,10,9,"5",47,3,"care","love","affection",0,39.00931716,"1",0.106896551724138,0.0101694915254237,0.28125,0.0169491525423729,89,10,10.7762557077626,6.04667918562658,0.10958904109589,"2"
"528",0,9,10,"5",48,3,"million","millionaire","rich",0,33.70477104,"1",0.0173611111111111,NA,NA,0.181818181818182,NA,1,NA,3.75721699359288,0.137931034482759,"2"
"529",0,10,9,"5",49,3,"section","part","feature",0,16.28674483,"0",0.152777777777778,0.0408163265306122,0.00701754385964912,NA,4,NA,1.69890510948905,5.41692485522709,0.0693430656934307,"1"
"530",0,9,10,"5",50,3,"website","computer","technology",0,24.29307103,"1",0.0609318996415771,NA,0.163265306122449,0.0313588850174216,NA,7,NA,4.77068910967312,0.0821428571428571,"1"
"531",0,10,9,"5",51,3,"practice","sports","activity",0,44.37172818,"0",0.027972027972028,NA,0.0254545454545455,0.013840830449827,NA,12,NA,4.44043679695055,0.238754325259516,"4"
"532",0,9,10,"5",52,3,"activity","sports","team",0,21.07202601,"0",0.0254545454545455,0.013840830449827,0.0572390572390572,0.013840830449827,9,15,3.72422680412371,4.44043679695055,0.0515463917525773,"1"
"533",0,10,9,"5",53,3,"back","behind","backwards",0,28.38548589,"2",0.0511945392491468,0.0812720848056537,0.0425531914893617,NA,9,NA,2.95980875541611,5.27329030866659,0.240549828178694,"4"
"534",0,9,10,"5",54,3,"rate","exchange","swap",0,67.89287996,"0",NA,0.0487804878048781,0.102189781021898,0.0592334494773519,1,3,1,4.30551383943565,0.0487804878048781,"1"
"535",0,10,9,"5",55,3,"head","noggin","head",1,13.0916729,"0",NA,NA,NA,NA,NA,NA,NA,2.83590218649474,0.206779661016949,"3"
"536",0,9,10,"5",56,3,"space","personal","private",0,39.329916,"0",NA,0.0512820512820513,0.0648464163822526,0.157509157509158,56,1,5.76288659793814,4.96170864463426,0.29553264604811,"4"
"537",0,10,9,"5",57,3,"series","ongoing","continuous",0,28.31709099,"0",NA,NA,0.0706319702602231,0.0889679715302491,NA,1,NA,3.34105216481464,0.08,"1"
"538",0,9,10,"5",58,3,"office","shrute","office",1,66.63968611,"0",NA,NA,NA,NA,NA,NA,NA,NA,0.127147766323024,"2"
"539",0,10,9,"5",59,3,"control","dominance","hierarchy",0,41.51305795,"1",0.00350877192982456,0.0343511450381679,NA,0.00763358778625954,13,26,6.25938566552901,2.89389413347242,0.215017064846416,"3"
"540",0,9,10,"5",60,3,"center","middle","midway",0,31.44320107,"1",0.214788732394366,0.125435540069686,NA,NA,3,NA,1.32410611303345,4.94984553880157,0.166089965397924,"3"
"541",0,12,11,"6",1,1,"method","way","path",0,37.33825684,"1",0.104477611940299,0.048951048951049,0.139455782312925,0.111888111888112,3,1,1.70238095238095,NA,0.0833333333333333,"1"
"542",0,11,12,"6",2,1,"store","shop","store",1,41.89175296,"0",0.123239436619718,0.169611307420495,0.123239436619718,0.169611307420495,5,1,1.24802311435523,4.72831483715396,0.211678832116788,"3"
"543",0,12,11,"6",3,1,"park","garden","yard",0,90.394393,"0",0.0169491525423729,NA,0.0551724137931034,0.00668896321070234,NA,41,NA,4.42377343735488,0.232727272727273,"3"
"544",0,11,12,"6",4,1,"road","street","pavement",0,29.09113193,"1",0.0973154362416107,0.166101694915254,0.0323741007194245,0.0135593220338983,5,13,1.31628995684295,5.17024102972546,0.218637992831541,"3"
"545",0,12,11,"6",5,1,"look","see","view",0,3.88661098,"0",0.221476510067114,0.0983050847457627,0.176678445229682,0.0610169491525424,13,3,2.3182031433263,6.40709175020568,0.227891156462585,"3"
"546",0,11,12,"6",6,1,"location","place","location",1,8.13608313,"1",0.212014134275618,0.0848056537102474,0.212014134275618,0.0848056537102474,2,3,1.45259661835749,5.7794956192631,0.123188405797101,"2"
"547",0,12,11,"6",7,1,"phone","mobile","telephone",0,24.17228413,"1",0.0240549828178694,0.248299319727891,0.0170068027210884,0.0136054421768707,1,15,1,3.87389750505617,0.248299319727891,"4"
"548",0,11,12,"6",8,1,"department","area","place",0,19.92943811,"0",0.0510948905109489,NA,0.0282685512367491,0.0492957746478873,NA,2,NA,4.87412482486345,0.022140221402214,"1"
"549",0,12,11,"6",9,1,"patient","long-suffering","ailing",0,50.10447502,"1",NA,NA,NA,NA,NA,NA,NA,NA,0.0571428571428571,"1"
"550",0,11,12,"6",10,1,"oil","gas","smoke",0,15.05569696,"1",0.0374149659863946,0.027027027027027,NA,0.00675675675675676,50,48,7.92857142857143,4.83065913108236,0.214285714285714,"3"
"551",0,12,11,"6",11,1,"news","report","presentation",0,50.870013,"0",0.00338983050847458,0.0425531914893617,0.00359712230215827,0.0106382978723404,24,17,3.75680272108844,5.03290691451778,0.159863945578231,"2"
